Folder: feature-extraction-paper-2024/Data/P190_04/EIS_02_P190_04_3

Note: README.md
# feature-extraction-paper-2024
Repository for code used and referenced in 2024 feature extraction paper

File: 2_EIS_02_P190_04_3 20230921 143754.csv
Step number,Repeats,Step name,Elapsed Time  (s),DC Working Electrode (V),DC Current (A),Frequency (Hz),|Z| (Ohms),Phase (deg),Z' (Ohms),-Z" (Ohms),THD (%),Amplitude (A),Amplitude (V),No of Cycles,Duration of Each Frequency (s),IR Compensated DC Working Electrode (V)
2,1,Potentiostatic EIS,60.2967,3.46499,-0.00975843,1000000,1.26444,84.8623,0.11323,-1.25936,1.35182,0.00792333,0.0100187,1430,0.00143,3.46499
2,1,Potentiostatic EIS,61.0787,3.46481,-0.0136517,707946,0.914856,84.3789,0.0896091,-0.910457,1.41534,0.0109203,0.00999039,1340,0.0018928,3.46481
2,1,Potentiostatic EIS,61.9254,3.46467,-0.0163394,501187,0.658356,83.4916,0.0746242,-0.654113,1.49483,0.0151559,0.00997813,1385,0.00276344,3.46467
2,1,Potentiostatic EIS,62.8395,3.46449,-0.0196667,354813,0.473844,82.0004,0.0659431,-0.469233,1.7989,0.020907,0.0099067,1365,0.00384709,3.46449
2,1,Potentiostatic EIS,64.0534,3.46431,-0.0232676,251189,0.344694,80.2291,0.0584975,-0.339694,1.98006,0.0289604,0.00998255,1340,0.00533464,3.46431
2,1,Potentiostatic EIS,65.3765,3.46411,-0.0271103,177828,0.250437,78.5863,0.0495594,-0.245484,2.15507,0.0398537,0.00998088,1355,0.00761973,3.46411
2,1,Potentiostatic EIS,67.2055,3.46384,-0.0315946,125892,0.183086,75.8279,0.044826,-0.177513,2.43741,0.0545114,0.00998033,1370,0.0108823,3.46384
2,1,Potentiostatic EIS,69.2859,3.46456,-0.0153151,89125.1,0.134804,72.6692,0.0401564,-0.128684,3.66864,0.0722198,0.00973604,1365,0.0153156,3.46456
2,1,Potentiostatic EIS,70.7618,3.46454,-0.0154538,63095.7,0.0996532,68.6844,0.0362244,-0.0928361,4.30402,0.100143,0.00997949,1290,0.0204451,3.46454
2,1,Potentiostatic EIS,71.4662,3.46453,-0.0152152,44668.3,0.0750167,62.865,0.0342143,-0.0667599,5.12481,0.128948,0.00967297,910,0.0203724,3.46453
2,1,Potentiostatic EIS,72.1259,3.4645,-0.0147346,31622.8,0.0584123,56.0767,0.0325989,-0.0484697,5.49198,0.16825,0.00982713,645,0.0203967,3.4645
2,1,Potentiostatic EIS,72.7904,3.46492,-0.00622779,22387.2,0.0462582,48.402,0.0307108,-0.0345928,5.94207,0.214147,0.00990612,455,0.0203241,3.46492
2,1,Potentiostatic EIS,73.4656,3.46499,-0.00435094,15848.9,0.0389246,39.4264,0.030067,-0.0247205,5.77763,0.256017,0.00996541,320,0.0201906,3.46499
2,1,Potentiostatic EIS,74.2038,3.46508,-0.0028998,11220.2,0.0345193,30.396,0.0297746,-0.0174658,5.18772,0.290026,0.0100117,225,0.0200532,3.46508
2,1,Potentiostatic EIS,75.0195,3.46536,-0.000998898,7943.27,0.0318504,23.846,0.0291315,-0.0128765,2.72421,0.294796,0.00938939,244,0.0307178,3.46536
2,1,Potentiostatic EIS,75.6551,3.46539,-0.000433885,5623.41,0.0296755,15.5127,0.0285944,-0.00793678,3.05303,0.350581,0.0104037,172,0.0305864,3.46539
2,1,Potentiostatic EIS,76.2483,3.46544,0.000256048,3981.07,0.0295876,9.91218,0.029146,-0.00509317,3.06893,0.296587,0.0087753,122,0.0306451,3.46544
2,1,Potentiostatic EIS,76.7527,3.46542,0.000106558,2818.38,0.0295707,5.92649,0.0294127,-0.00305325,2.82699,0.351993,0.0104087,86,0.030514,3.46542
2,1,Potentiostatic EIS,77.2561,3.46546,0.000951646,1995.26,0.0297278,2.87757,0.0296903,-0.0014924,2.71154,0.340559,0.0101241,61,0.0305725,3.46546
2,1,Potentiostatic EIS,77.6274,3.46547,0.00107916,1412.53,0.0300379,0.431362,0.030037,-0.000226144,2.47971,0.345003,0.0103632,43,0.0304417,3.46547
2,1,Potentiostatic EIS,77.9965,3.46549,0.00127553,999.999,0.0305063,-1.36718,0.0304976,0.000727864,2.41311,0.333472,0.010173,30,0.03,3.46549
2,1,Potentiostatic EIS,78.3709,3.46546,0.000955386,707.945,0.0310952,-2.77771,0.0310586,0.00150691,2.258,0.323542,0.0100606,21,0.0296633,3.46546
2,1,Potentiostatic EIS,78.6967,3.46549,0.00155834,501.185,0.0317445,-3.8799,0.0316717,0.002148,2.12827,0.26912,0.00854309,15,0.029929,3.46549
2,1,Potentiostatic EIS,78.935,3.46548,0.00151424,354.813,0.0325086,-4.73287,0.0323977,0.00268229,1.83134,0.285611,0.0092848,10,0.0281839,3.46548
2,1,Potentiostatic EIS,79.1734,3.46549,0.00125242,251.188,0.0333284,-5.33459,0.0331841,0.0030986,1.53198,0.289681,0.0096546,8,0.0318487,3.46549
2,1,Potentiostatic EIS,79.4419,3.46549,0.00147847,177.828,0.0342761,-5.70175,0.0341065,0.00340534,1.21718,0.287016,0.0098378,8,0.0449874,3.46549
2,1,Potentiostatic EIS,79.7605,3.46549,0.00152686,125.892,0.0352225,-5.86967,0.0350378,0.00360206,0.942555,0.281302,0.00990817,8,0.0635464,3.46549
2,1,Potentiostatic EIS,80.1485,3.46549,0.00139277,89.1248,0.0362021,-5.85469,0.0360133,0.00369283,0.663775,0.2743,0.00993023,8,0.0897617,3.46549
2,1,Potentiostatic EIS,80.6441,3.46549,0.00151841,63.0956,0.0371541,-5.63974,0.0369743,0.00365126,0.498775,0.267344,0.00993293,8,0.126792,3.46549
2,1,Potentiostatic EIS,81.2919,3.46549,0.00122864,44.6682,0.0380682,-5.30859,0.0379049,0.00352206,0.369108,0.25527,0.00971767,8,0.179098,3.46549
2,1,Potentiostatic EIS,81.9767,3.46549,0.000877619,31.6227,0.0388687,-4.91496,0.0387257,0.00333015,0.301108,0.254509,0.0098925,2,0.0632458,3.46549
2,1,Potentiostatic EIS,82.4649,3.46549,0.000923963,22.3871,0.0396259,-4.39562,0.0395093,0.00303704,0.264376,0.245335,0.00972167,2,0.0893371,3.46549
2,1,Potentiostatic EIS,83.1338,3.46549,0.00101751,15.8489,0.0402664,-3.91608,0.0401723,0.00275001,0.230654,0.244069,0.00982771,2,0.126192,3.46549
2,1,Potentiostatic EIS,84.0574,3.46551,0.000787914,11.2201,0.0407954,-3.44241,0.0407218,0.00244957,0.23808,0.242564,0.0098955,2,0.178251,3.46551
2,1,Potentiostatic EIS,85.3406,3.4655,0.00059844,7.94325,0.0412624,-3.05488,0.0412038,0.00219897,0.235515,0.240539,0.0099252,2,0.251786,3.4655
2,1,Potentiostatic EIS,87.1308,3.4655,0.000478998,5.62339,0.0416365,-2.70707,0.0415901,0.00196648,0.221369,0.238808,0.00994314,2,0.355657,3.4655
2,1,Potentiostatic EIS,89.6287,3.4655,0.000240819,3.98106,0.0419625,-2.43263,0.0419247,0.00178109,0.222888,0.237123,0.00995027,2,0.502378,3.4655
2,1,Potentiostatic EIS,93.1386,3.4655,9.52749e-05,2.81837,0.0422426,-2.26458,0.0422096,0.00166918,0.211104,0.235739,0.00995822,2,0.70963,3.4655
2,1,Potentiostatic EIS,98.0792,3.46551,3.90614e-05,1.99526,0.0424977,-2.12877,0.0424684,0.0015786,0.204755,0.23447,0.00996443,2,1.00238,3.46551
2,1,Potentiostatic EIS,105.038,3.4655,0.00146019,1.41253,0.0427492,-2.06912,0.0427213,0.00154346,0.214002,0.232886,0.00995568,2,1.4159,3.4655
2,1,Potentiostatic EIS,114.849,3.4655,0.000368336,0.999995,0.0429278,-2.15663,0.0428974,0.00161544,0.198248,0.232039,0.00996093,2,2.00001,3.4655
2,1,Potentiostatic EIS,128.694,3.4655,0.00024923,0.707944,0.0432326,-2.27023,0.0431986,0.00171255,0.216078,0.230276,0.00995541,2,2.82508,3.4655
2,1,Potentiostatic EIS,148.232,3.46551,-0.000251323,0.501186,0.0433552,-2.50284,0.0433139,0.00189327,0.164661,0.229835,0.00996457,2,3.99054,3.46551
2,1,Potentiostatic EIS,175.818,3.46552,-9.50167e-07,0.354812,0.0436224,-2.7924,0.0435706,0.00212516,0.213331,0.228416,0.00996402,2,5.63679,3.46552
2,1,Potentiostatic EIS,214.749,3.46551,9.5036e-05,0.251188,0.0439023,-3.20048,0.0438338,0.00245106,0.197781,0.226994,0.00996555,2,7.96218,3.46551
2,1,Potentiostatic EIS,269.722,3.4655,-1.33495e-05,0.177827,0.0442216,-3.70952,0.0441289,0.00286106,0.189949,0.225296,0.00996292,2,11.2469,3.4655
2,1,Potentiostatic EIS,347.372,3.46551,0.000124374,0.125892,0.0445482,-4.37649,0.0444183,0.00339947,0.192272,0.223611,0.00996145,2,15.8867,3.46551
2,1,Potentiostatic EIS,457.023,3.4655,-4.1157e-05,0.0891246,0.0450041,-5.21522,0.0448178,0.00409074,0.167539,0.221464,0.00996676,2,22.4405,3.4655
2,1,Potentiostatic EIS,611.88,3.4655,-0.000335875,0.0630955,0.0454385,-6.30592,0.0451636,0.00499083,0.146922,0.219402,0.00996929,2,31.698,3.4655
2,1,Potentiostatic EIS,821.904,3.4655,0.000169368,0.05,0.0456652,-7.2389,0.0453012,0.00575412,0.158659,0.21815,0.00996184,2,40,3.4655