Folder: feature-extraction-paper-2024/Data/P190_04/EIS_06_P190_04_2

Note: README.md
# feature-extraction-paper-2024
Repository for code used and referenced in 2024 feature extraction paper

File: 2_EIS_06_P190_04_2 20231011 164700.csv
Step number,Repeats,Step name,Elapsed Time  (s),DC Working Electrode (V),DC Current (A),Frequency (Hz),|Z| (Ohms),Phase (deg),Z' (Ohms),-Z" (Ohms),THD (%),Amplitude (A),Amplitude (V),No of Cycles,Duration of Each Frequency (s),IR Compensated DC Working Electrode (V)
2,1,Potentiostatic EIS,60.2975,3.4994,-0.0107748,1000000,3.23916,88.4252,0.0890187,-3.23794,1.28397,0.00306971,0.0099434,1430,0.00143,3.4994
2,1,Potentiostatic EIS,60.9889,3.49933,-0.0122755,707946,2.31344,87.9426,0.0830555,-2.31195,1.1528,0.00428413,0.00991107,1340,0.0018928,3.49933
2,1,Potentiostatic EIS,61.7389,3.49928,-0.013609,501187,1.6468,87.368,0.0756238,-1.64507,1.17424,0.0060553,0.00997193,1385,0.00276344,3.49928
2,1,Potentiostatic EIS,62.576,3.49921,-0.0150987,354813,1.17489,86.2626,0.0765847,-1.1724,1.15978,0.00843042,0.00990476,1365,0.00384709,3.49921
2,1,Potentiostatic EIS,63.6725,3.49914,-0.0163161,251189,0.84408,85.4014,0.0676745,-0.841363,1.35664,0.0118345,0.00998932,1340,0.00533464,3.49914
2,1,Potentiostatic EIS,64.8741,3.49907,-0.0179291,177828,0.604705,84.6159,0.0567407,-0.602037,1.21262,0.0164735,0.00996165,1355,0.00761973,3.49907
2,1,Potentiostatic EIS,66.5905,3.49896,-0.0202241,125892,0.434694,83.4995,0.0492122,-0.431899,1.56427,0.022949,0.00997581,1370,0.0108823,3.49896
2,1,Potentiostatic EIS,68.3455,3.49883,-0.0227624,89125.1,0.312768,82.1325,0.0428122,-0.309824,1.48754,0.0319431,0.0099908,1365,0.0153156,3.49883
2,1,Potentiostatic EIS,69.9844,3.4987,-0.0255525,63095.7,0.224771,80.2144,0.0382026,-0.221501,1.89367,0.0444556,0.00999232,1290,0.0204451,3.4987
2,1,Potentiostatic EIS,70.7392,3.49866,-0.0261388,44668.3,0.16309,77.1584,0.0362478,-0.159011,1.6858,0.0603109,0.00983645,910,0.0203724,3.49866
2,1,Potentiostatic EIS,71.6495,3.49916,-0.0128204,31622.8,0.119653,74.0039,0.032973,-0.11502,4.65015,0.0839861,0.0100493,645,0.0203967,3.49916
2,1,Potentiostatic EIS,72.3061,3.49956,-0.00339984,22387.2,0.0875272,69.5179,0.0306271,-0.0819939,5.9133,0.113897,0.00996921,455,0.0203241,3.49956
2,1,Potentiostatic EIS,72.9343,3.49961,-0.00224271,15848.9,0.0656166,63.4611,0.0293178,-0.0587026,6.55977,0.148574,0.00974865,320,0.0201906,3.49961
2,1,Potentiostatic EIS,73.5443,3.49961,-0.00173127,11220.2,0.0509117,55.7896,0.0286242,-0.0421029,6.57414,0.193974,0.00987574,225,0.0200532,3.49961
2,1,Potentiostatic EIS,74.2265,3.49979,-0.00199197,7943.27,0.041025,48.2776,0.0273031,-0.0306202,3.88924,0.257452,0.010562,244,0.0307178,3.49979
2,1,Potentiostatic EIS,74.8605,3.49983,-0.00120537,5623.41,0.0336735,37.7533,0.0266241,-0.0206171,4.50409,0.307418,0.0103519,172,0.0305864,3.49983
2,1,Potentiostatic EIS,75.4942,3.49984,-0.000864156,3981.07,0.0304708,28.0386,0.0268945,-0.0143233,4.27866,0.33257,0.0101337,122,0.0306451,3.49984
2,1,Potentiostatic EIS,76.0044,3.49986,-2.66458e-05,2818.38,0.0286622,19.8505,0.0269592,-0.00973277,3.79406,0.366042,0.0104916,86,0.030514,3.49986
2,1,Potentiostatic EIS,76.5052,3.49988,0.000151058,1995.26,0.0278206,13.1767,0.0270881,-0.00634182,3.17652,0.366465,0.0101953,61,0.0305725,3.49988
2,1,Potentiostatic EIS,76.922,3.49988,4.56666e-05,1412.53,0.0275823,7.96823,0.027316,-0.00382356,2.77333,0.356987,0.00984651,43,0.0304417,3.49988
2,1,Potentiostatic EIS,77.2921,3.49988,6.25022e-05,999.999,0.0277212,3.9829,0.0276543,-0.00192548,2.34595,0.369479,0.0102424,30,0.03,3.49988
2,1,Potentiostatic EIS,77.6601,3.49991,0.000923395,707.945,0.0281033,1.03216,0.0280987,-0.000506242,2.10375,0.358663,0.0100796,21,0.0296633,3.49991
2,1,Potentiostatic EIS,78.0295,3.49991,0.000889306,501.185,0.0286519,-1.16988,0.0286459,0.000584979,1.9581,0.349949,0.0100267,15,0.029929,3.49991
2,1,Potentiostatic EIS,78.2672,3.4999,0.000777453,354.813,0.0293148,-2.75758,0.0292809,0.00141035,1.80441,0.309165,0.00906312,10,0.0281839,3.4999
2,1,Potentiostatic EIS,78.5063,3.49991,0.000746089,251.188,0.0300897,-3.81191,0.0300231,0.0020004,1.5382,0.317339,0.00954863,8,0.0318487,3.49991
2,1,Potentiostatic EIS,78.7716,3.49991,0.00116702,177.828,0.0309094,-4.44216,0.0308165,0.00239401,1.2362,0.31624,0.00977478,8,0.0449874,3.49991
2,1,Potentiostatic EIS,79.0883,3.49992,0.000947126,125.892,0.0317157,-4.80266,0.0316044,0.00265537,0.967668,0.311086,0.00986632,8,0.0635464,3.49992
2,1,Potentiostatic EIS,79.4766,3.49991,0.000847212,89.1248,0.0325146,-4.81333,0.0323999,0.00272829,0.724295,0.304537,0.00990191,8,0.0897617,3.49991
2,1,Potentiostatic EIS,79.9695,3.49991,0.00123424,63.0956,0.0332699,-4.64403,0.0331606,0.00269369,0.528221,0.297927,0.00991198,8,0.126792,3.49991
2,1,Potentiostatic EIS,80.6133,3.49992,0.000831718,44.6682,0.0339591,-4.33253,0.033862,0.00256543,0.373257,0.286205,0.00971926,8,0.179098,3.49992
2,1,Potentiostatic EIS,81.2971,3.49991,0.000510252,31.6227,0.0345497,-3.95434,0.0344674,0.0023826,0.278128,0.286091,0.00988436,2,0.0632458,3.49991
2,1,Potentiostatic EIS,81.7864,3.49992,0.000959364,22.3871,0.0350843,-3.45398,0.0350205,0.00211372,0.243978,0.276378,0.00969664,2,0.0893371,3.49992
2,1,Potentiostatic EIS,82.4561,3.49992,0.000155814,15.8489,0.0355051,-3.00561,0.0354562,0.00186166,0.185667,0.276674,0.00982338,2,0.126192,3.49992
2,1,Potentiostatic EIS,83.3802,3.49991,0.000263885,11.2201,0.0358493,-2.60255,0.0358124,0.00162783,0.204933,0.275899,0.00989082,2,0.178251,3.49991
2,1,Potentiostatic EIS,84.6635,3.49991,0.000148252,7.94325,0.0361053,-2.23297,0.0360779,0.00140677,0.187666,0.274567,0.00991332,2,0.251786,3.49991
2,1,Potentiostatic EIS,86.4529,3.49991,0.000122042,5.62339,0.0363191,-1.95741,0.0362979,0.00124054,0.172433,0.273431,0.00993077,2,0.355657,3.49991
2,1,Potentiostatic EIS,88.9538,3.49991,-9.4508e-05,3.98106,0.0364836,-1.761,0.0364663,0.00112115,0.18701,0.272454,0.00994011,2,0.502378,3.49991
2,1,Potentiostatic EIS,92.4653,3.4999,-0.000309928,2.81837,0.0366268,-1.62892,0.036612,0.00104116,0.176827,0.271618,0.00994851,2,0.70963,3.4999
2,1,Potentiostatic EIS,97.4066,3.49991,-0.000306832,1.99526,0.036729,-1.58625,0.036715,0.00101673,0.210571,0.2711,0.00995725,2,1.00238,3.49991
2,1,Potentiostatic EIS,104.366,3.49991,-0.000228397,1.41253,0.0368042,-1.5814,0.0367901,0.00101569,0.162824,0.270328,0.00994919,2,1.4159,3.49991
2,1,Potentiostatic EIS,114.179,3.4999,-0.00026009,0.999995,0.0369088,-1.64685,0.0368936,0.00106073,0.18079,0.269466,0.00994567,2,2.00001,3.4999
2,1,Potentiostatic EIS,128.023,3.49991,-0.000112664,0.707944,0.0369714,-1.77777,0.0369536,0.00114696,0.189411,0.269203,0.0099528,2,2.82508,3.49991
2,1,Potentiostatic EIS,147.561,3.49991,7.47462e-06,0.501186,0.0370685,-1.95305,0.037047,0.00126332,0.137712,0.268529,0.00995396,2,3.99054,3.49991
2,1,Potentiostatic EIS,175.144,3.49992,-9.70142e-05,0.354812,0.0371669,-2.25277,0.0371382,0.00146096,0.153914,0.267709,0.00994989,2,5.63679,3.49992
2,1,Potentiostatic EIS,214.074,3.49991,-0.0002204,0.251188,0.0372954,-2.59615,0.0372571,0.00168933,0.187082,0.266886,0.00995361,2,7.96218,3.49991
2,1,Potentiostatic EIS,269.048,3.49991,-0.000274414,0.177827,0.0374242,-3.03309,0.0373718,0.00198022,0.184578,0.265998,0.00995475,2,11.2469,3.49991
2,1,Potentiostatic EIS,346.696,3.49992,-0.000317171,0.125892,0.0375656,-3.59558,0.0374916,0.00235587,0.186516,0.264983,0.00995422,2,15.8867,3.49992
2,1,Potentiostatic EIS,456.349,3.49991,-0.000382258,0.0891246,0.0377429,-4.29629,0.0376368,0.00282747,0.191821,0.263762,0.00995509,2,22.4405,3.49991
2,1,Potentiostatic EIS,611.205,3.49991,-0.000277308,0.0630955,0.0380372,-5.17591,0.0378821,0.00343148,0.182385,0.261832,0.00995929,2,31.698,3.49991
2,1,Potentiostatic EIS,821.228,3.4999,0.000176391,0.05,0.038227,-5.93218,0.0380223,0.0039508,0.144407,0.260511,0.00995847,2,40,3.4999