Folder: feature-extraction-paper-2024/Data/P190_04/EIS_06_P190_04_4

Note: README.md
# feature-extraction-paper-2024
Repository for code used and referenced in 2024 feature extraction paper

File: 2_EIS_06_P190_04_4 20231012 112849.csv
Step number,Repeats,Step name,Elapsed Time  (s),DC Working Electrode (V),DC Current (A),Frequency (Hz),|Z| (Ohms),Phase (deg),Z' (Ohms),-Z" (Ohms),THD (%),Amplitude (A),Amplitude (V),No of Cycles,Duration of Each Frequency (s),IR Compensated DC Working Electrode (V)
2,1,Potentiostatic EIS,60.2982,3.50182,-0.0123504,1000000,3.15114,88.2828,0.0944292,-3.14972,1.0524,0.003155,0.00994134,1430,0.00143,3.50182
2,1,Potentiostatic EIS,60.992,3.50177,-0.0137129,707946,2.25266,88.1768,0.0716711,-2.25152,1.0262,0.00439381,0.00989793,1340,0.0018928,3.50177
2,1,Potentiostatic EIS,61.7643,3.50171,-0.0149329,501187,1.60743,87.5909,0.0675673,-1.60601,0.987025,0.00619809,0.00996303,1385,0.00276344,3.50171
2,1,Potentiostatic EIS,62.6093,3.50164,-0.0162054,354813,1.1449,86.7912,0.0640853,-1.1431,1.1282,0.00866776,0.00992369,1365,0.00384709,3.50164
2,1,Potentiostatic EIS,63.7122,3.50156,-0.0176335,251189,0.820215,85.735,0.0609992,-0.817943,1.11431,0.012167,0.00997954,1340,0.00533464,3.50156
2,1,Potentiostatic EIS,64.9129,3.50151,-0.0196282,177828,0.587303,85.1088,0.0500756,-0.585164,1.26742,0.0169568,0.00995878,1355,0.00761973,3.50151
2,1,Potentiostatic EIS,66.6334,3.50136,-0.0226061,125892,0.422617,84.0344,0.0439228,-0.420329,1.45723,0.0236225,0.00998331,1370,0.0108823,3.50136
2,1,Potentiostatic EIS,68.3864,3.50128,-0.0244903,89125.1,0.303916,82.8231,0.0379693,-0.301535,1.54997,0.0328497,0.00998358,1365,0.0153156,3.50128
2,1,Potentiostatic EIS,70.034,3.50113,-0.0281417,63095.7,0.218509,81.1546,0.0335997,-0.21591,1.63209,0.0457326,0.00999306,1290,0.0204451,3.50113
2,1,Potentiostatic EIS,70.8762,3.50111,-0.0283023,44668.3,0.157721,78.6846,0.0309464,-0.154655,1.79076,0.0618971,0.00976241,910,0.0203724,3.50111
2,1,Potentiostatic EIS,71.6702,3.50154,-0.0139314,31622.8,0.114825,75.6659,0.0284279,-0.111251,4.84006,0.0874309,0.0100392,645,0.0203967,3.50154
2,1,Potentiostatic EIS,72.3334,3.50191,-0.00447094,22387.2,0.0834643,71.7744,0.0261042,-0.0792771,6.04096,0.119576,0.00998038,455,0.0203241,3.50191
2,1,Potentiostatic EIS,72.9963,3.502,-0.00290406,15848.9,0.0620427,66.3345,0.0249037,-0.0568252,6.72668,0.160893,0.0099823,320,0.0201906,3.502
2,1,Potentiostatic EIS,73.6068,3.502,-0.00206106,11220.2,0.0474215,59.2338,0.0242578,-0.0407475,6.76366,0.205111,0.00972593,225,0.0200532,3.502
2,1,Potentiostatic EIS,74.2928,3.50218,-0.00246273,7943.27,0.0374911,52.1797,0.022989,-0.0296156,3.99676,0.270559,0.0101435,244,0.0307178,3.50218
2,1,Potentiostatic EIS,74.9257,3.50222,-0.00175868,5623.41,0.0299091,41.7649,0.0223087,-0.0199217,4.63231,0.348639,0.0104275,172,0.0305864,3.50222
2,1,Potentiostatic EIS,75.5579,3.50223,-0.00148463,3981.07,0.0264882,31.2843,0.0226368,-0.0137549,4.42864,0.386292,0.0102322,122,0.0306451,3.50223
2,1,Potentiostatic EIS,76.1023,3.50226,-0.000496851,2818.38,0.0245391,22.2415,0.0227133,-0.00928833,3.91812,0.393387,0.00965335,86,0.030514,3.50226
2,1,Potentiostatic EIS,76.6044,3.50229,-0.000230916,1995.26,0.0236844,14.7207,0.022907,-0.00601839,3.29332,0.434572,0.0102926,61,0.0305725,3.50229
2,1,Potentiostatic EIS,77.062,3.50229,0.000211563,1412.53,0.0234331,8.7045,0.0231632,-0.00354633,2.77509,0.367195,0.00860453,43,0.0304417,3.50229
2,1,Potentiostatic EIS,77.4314,3.50229,0.000312495,999.999,0.0235635,4.14465,0.0235019,-0.00170305,2.31459,0.436592,0.0102876,30,0.03,3.50229
2,1,Potentiostatic EIS,77.7995,3.50231,0.000991146,707.945,0.0239569,0.696417,0.0239551,-0.000291183,2.07976,0.422605,0.0101243,21,0.0296633,3.50231
2,1,Potentiostatic EIS,78.1684,3.5023,0.000337984,501.185,0.0245537,-1.89157,0.0245403,0.00081047,1.91465,0.408925,0.0100406,15,0.029929,3.5023
2,1,Potentiostatic EIS,78.4496,3.50231,0.000844428,354.813,0.0252842,-3.66365,0.0252326,0.00161564,1.7983,0.352503,0.00891277,10,0.0281839,3.50231
2,1,Potentiostatic EIS,78.687,3.50231,0.00118869,251.188,0.0260576,-4.89991,0.0259624,0.00222572,1.56869,0.363779,0.00947921,8,0.0318487,3.50231
2,1,Potentiostatic EIS,78.9534,3.50232,0.0012335,177.828,0.0269253,-5.64282,0.0267948,0.00264747,1.31385,0.362074,0.00974893,8,0.0449874,3.50232
2,1,Potentiostatic EIS,79.2711,3.50232,0.000847734,125.892,0.0278015,-6.01095,0.0276486,0.00291133,1.03478,0.354659,0.00986005,8,0.0635464,3.50232
2,1,Potentiostatic EIS,79.6583,3.50233,0.00120098,89.1248,0.0286896,-6.03897,0.0285304,0.00301828,0.779663,0.345003,0.009898,8,0.0897617,3.50233
2,1,Potentiostatic EIS,80.1523,3.50232,0.00099357,63.0956,0.0295235,-5.80428,0.0293721,0.00298573,0.605013,0.335617,0.00990859,8,0.126792,3.50232
2,1,Potentiostatic EIS,80.7962,3.50233,0.0010948,44.6682,0.0303107,-5.42567,0.0301749,0.00286601,0.420856,0.320419,0.0097121,8,0.179098,3.50233
2,1,Potentiostatic EIS,81.4792,3.50232,0.000360939,31.6227,0.0309866,-4.92086,0.0308724,0.00265802,0.327465,0.319054,0.00988651,2,0.0632458,3.50232
2,1,Potentiostatic EIS,81.9671,3.50233,0.00094772,22.3871,0.0315661,-4.33672,0.0314757,0.00238696,0.258269,0.307063,0.00969281,2,0.0893371,3.50233
2,1,Potentiostatic EIS,82.6372,3.50232,0.000534234,15.8489,0.0320945,-3.74009,0.0320261,0.00209354,0.222521,0.305759,0.00981326,2,0.126192,3.50232
2,1,Potentiostatic EIS,83.5614,3.50232,0.000386866,11.2201,0.03245,-3.20934,0.0323991,0.00181669,0.285991,0.304306,0.00987475,2,0.178251,3.50232
2,1,Potentiostatic EIS,84.8449,3.50232,0.000148832,7.94325,0.0327334,-2.75112,0.0326957,0.00157113,0.20742,0.302545,0.00990336,2,0.251786,3.50232
2,1,Potentiostatic EIS,86.6375,3.50232,-0.000174869,5.62339,0.0329675,-2.40575,0.0329385,0.00138384,0.225097,0.300992,0.00992295,2,0.355657,3.50232
2,1,Potentiostatic EIS,89.1451,3.50232,-0.000186595,3.98106,0.0331528,-2.13568,0.0331298,0.00123547,0.207753,0.299786,0.00993874,2,0.502378,3.50232
2,1,Potentiostatic EIS,92.6572,3.50232,-0.000155785,2.81837,0.0333567,-1.93594,0.0333377,0.00112686,0.212234,0.298035,0.00994148,2,0.70963,3.50232
2,1,Potentiostatic EIS,97.5972,3.50232,-0.000220262,1.99526,0.0334982,-1.85623,0.0334806,0.00108506,0.211519,0.29675,0.00994058,2,1.00238,3.50232
2,1,Potentiostatic EIS,104.557,3.50233,-0.000257008,1.41253,0.0336827,-1.82328,0.0336656,0.00107168,0.192328,0.295297,0.00994641,2,1.4159,3.50233
2,1,Potentiostatic EIS,114.37,3.50232,-0.000418085,0.999995,0.033831,-1.85823,0.0338133,0.00109702,0.182489,0.294077,0.00994892,2,2.00001,3.50232
2,1,Potentiostatic EIS,128.213,3.50232,-0.000353777,0.707944,0.0339644,-1.98292,0.0339441,0.00117523,0.226733,0.292864,0.00994695,2,2.82508,3.50232
2,1,Potentiostatic EIS,147.751,3.50234,-0.000286019,0.501186,0.0341448,-2.20192,0.0341196,0.00131189,0.180945,0.291312,0.00994679,2,3.99054,3.50234
2,1,Potentiostatic EIS,175.336,3.50233,-0.000258367,0.354812,0.0345225,-2.50144,0.0344896,0.00150672,0.261603,0.288291,0.00995259,2,5.63679,3.50233
2,1,Potentiostatic EIS,214.265,3.50233,-0.00062931,0.251188,0.0347315,-2.82164,0.0346894,0.00170973,0.220308,0.286329,0.00994463,2,7.96218,3.50233
2,1,Potentiostatic EIS,269.237,3.50232,-0.000551704,0.177827,0.0350484,-3.29421,0.0349905,0.00201399,0.198249,0.283849,0.00994846,2,11.2469,3.50232
2,1,Potentiostatic EIS,346.884,3.50234,-0.000224736,0.125892,0.0353046,-3.88646,0.0352234,0.00239293,0.206744,0.281783,0.00994822,2,15.8867,3.50234
2,1,Potentiostatic EIS,456.537,3.50233,-8.61995e-05,0.0891246,0.0356457,-4.63034,0.0355293,0.00287756,0.205332,0.279096,0.00994857,2,22.4405,3.50233
2,1,Potentiostatic EIS,611.392,3.50232,8.42749e-05,0.0630955,0.036135,-5.57405,0.0359642,0.00350987,0.188404,0.275387,0.00995111,2,31.698,3.50232
2,1,Potentiostatic EIS,821.415,3.50233,-3.48521e-05,0.05,0.0364268,-6.32413,0.0362051,0.00401251,0.165803,0.273351,0.00995728,2,40,3.50233