Folder: feature-extraction-paper-2024/Data/P190_04/EIS_08_P190_04_4

Note: README.md
# feature-extraction-paper-2024
Repository for code used and referenced in 2024 feature extraction paper

File: 3_EIS_08_P190_04_4 20231019 142525.csv
Step number,Repeats,Step name,Elapsed Time  (s),DC Working Electrode (V),DC Current (A),Frequency (Hz),|Z| (Ohms),Phase (deg),Z' (Ohms),-Z" (Ohms),THD (%),Amplitude (A),Amplitude (V),No of Cycles,Duration of Each Frequency (s),IR Compensated DC Working Electrode (V)
3,1,Potentiostatic EIS,821.804,3.48743,0.0248475,1000000,3.08783,87.9881,0.108404,-3.08592,0.978214,0.0032024,0.00988861,1430,0.00143,3.48743
3,1,Potentiostatic EIS,824.105,3.48742,0.0109275,954993,2.94548,88.042,0.100639,-2.94376,0.925769,0.00333238,0.00981544,1425,0.00149216,3.48742
3,1,Potentiostatic EIS,826.386,3.48744,0.00667574,912011,2.81919,87.9067,0.102978,-2.81731,0.989277,0.00350247,0.00987408,1425,0.00156248,3.48744
3,1,Potentiostatic EIS,828.666,3.48742,0.00391353,870964,2.69706,87.8099,0.103067,-2.69509,0.849647,0.0036559,0.00986014,1390,0.00159593,3.48742
3,1,Potentiostatic EIS,830.969,3.48744,0.0023399,831764.375,2.58024,87.7141,0.102915,-2.57818,0.908979,0.00383419,0.00989305,1400,0.00168317,3.48744
3,1,Potentiostatic EIS,833.276,3.48743,0.000696599,794329,2.47302,87.7173,0.0985025,-2.47106,1.10536,0.00399818,0.00988745,1445,0.00181915,3.48743
3,1,Potentiostatic EIS,835.588,3.48743,-0.000312526,758578,2.3619,87.6322,0.0975793,-2.35989,1.03928,0.00418846,0.00989278,1370,0.00180601,3.48743
3,1,Potentiostatic EIS,837.905,3.48741,-0.00132648,724437,2.25439,87.7133,0.0899494,-2.25259,0.937592,0.00439358,0.0099049,1340,0.00184971,3.48741
3,1,Potentiostatic EIS,840.239,3.48739,-0.00222555,691832,2.16552,87.5981,0.0907525,-2.16362,0.920252,0.004563,0.00988121,1350,0.00195134,3.48739
3,1,Potentiostatic EIS,842.6,3.48738,-0.00275806,660695,2.06587,87.493,0.0903637,-2.06389,0.920125,0.00475374,0.0098208,1400,0.00211898,3.48738
3,1,Potentiostatic EIS,844.991,3.4874,-0.00263262,630959,1.97384,87.2299,0.095392,-1.97153,0.909119,0.00495103,0.00977292,1355,0.00214753,3.4874
3,1,Potentiostatic EIS,847.397,3.48739,-0.00334247,602560.875,1.8876,87.2521,0.0904929,-1.88542,0.899198,0.0051374,0.00969787,1350,0.00224044,3.48739
3,1,Potentiostatic EIS,849.848,3.48737,-0.00373433,575441.125,1.80519,87.1715,0.0890789,-1.803,0.863032,0.00552735,0.00997797,1385,0.00240685,3.48737
3,1,Potentiostatic EIS,852.501,3.48735,-0.00451115,549542,1.72206,87.1889,0.0844569,-1.71999,0.961455,0.0057873,0.00996613,1345,0.00244749,3.48735
3,1,Potentiostatic EIS,855.17,3.48735,-0.00450029,524808.75,1.65089,87.1549,0.0819437,-1.64885,0.928219,0.00602779,0.00995121,1345,0.00256284,3.48735
3,1,Potentiostatic EIS,857.898,3.48738,-0.00463674,501188,1.57592,87.1654,0.0779336,-1.57399,0.914926,0.00633025,0.009976,1385,0.00276343,3.48738
3,1,Potentiostatic EIS,860.616,3.48734,-0.00494472,478631,1.50681,87.0349,0.0779449,-1.5048,1.10979,0.0066037,0.00995057,1365,0.00285188,3.48734
3,1,Potentiostatic EIS,863.344,3.48734,-0.00500884,457090,1.43805,86.7747,0.080908,-1.43577,0.820935,0.00691489,0.009944,1380,0.0030191,3.48734
3,1,Potentiostatic EIS,866.085,3.48734,-0.00517739,436517,1.37705,86.6739,0.0798935,-1.37473,0.908095,0.0072228,0.00994613,1345,0.00308121,3.48734
3,1,Potentiostatic EIS,868.815,3.48733,-0.00529487,416871,1.3167,86.4267,0.0820628,-1.31414,0.907166,0.0075652,0.00996106,1355,0.00325041,3.48733
3,1,Potentiostatic EIS,871.587,3.48733,-0.00547595,398109,1.26216,86.3681,0.0799533,-1.25963,0.961056,0.00790697,0.00997994,1400,0.00351663,3.48733
3,1,Potentiostatic EIS,874.369,3.48731,-0.00574198,380191,1.20696,86.3373,0.077103,-1.20449,0.889836,0.00824265,0.00994859,1400,0.00368236,3.48731
3,1,Potentiostatic EIS,877.206,3.48732,-0.00579105,363079,1.15289,86.2186,0.0760333,-1.15038,1.01423,0.00862147,0.00993965,1365,0.00375951,3.48732
3,1,Potentiostatic EIS,880.098,3.4873,-0.00603826,346738,1.10018,86.1185,0.0744741,-1.09766,0.928247,0.00903468,0.00993981,1375,0.00396553,3.4873
3,1,Potentiostatic EIS,883.024,3.48731,-0.00572042,331132.5,1.051,86.0374,0.0726291,-1.04849,0.993213,0.0094482,0.00993009,1355,0.00409202,3.48731
3,1,Potentiostatic EIS,886.017,3.4873,-0.0059713,316229,1.00611,85.952,0.071024,-1.0036,0.984206,0.0098816,0.00994204,1370,0.0043323,3.4873
3,1,Potentiostatic EIS,889.083,3.48727,-0.00683827,301997,0.963828,85.7712,0.0710721,-0.961204,1.05462,0.0103116,0.0099386,1365,0.00451992,3.48727
3,1,Potentiostatic EIS,892.216,3.48727,-0.00686274,288405,0.924366,85.6122,0.0707199,-0.921657,0.977473,0.0107958,0.00997928,1340,0.00464625,3.48727
3,1,Potentiostatic EIS,895.424,3.48726,-0.00735373,275424,0.883028,85.4449,0.0701286,-0.880239,0.906994,0.0112752,0.0099563,1355,0.00491968,3.48726
3,1,Potentiostatic EIS,898.788,3.48724,-0.00737887,263028,0.845795,85.3578,0.0684522,-0.843021,1.12167,0.0117907,0.00997254,1355,0.00515154,3.48724
3,1,Potentiostatic EIS,902.115,3.48725,-0.00707311,251190,0.808999,85.2345,0.0672105,-0.806202,0.909645,0.0122299,0.00989374,1340,0.00533461,3.48725
3,1,Potentiostatic EIS,905.493,3.48722,-0.00801821,239885,0.773509,85.2819,0.063624,-0.770888,1.01967,0.0127244,0.0098426,1365,0.00569023,3.48722
3,1,Potentiostatic EIS,908.989,3.48723,-0.00756363,229088.125,0.74021,85.2204,0.0616766,-0.737636,0.979063,0.0132164,0.00978202,1380,0.00602388,3.48723
3,1,Potentiostatic EIS,912.547,3.48722,-0.00771493,218777,0.707884,85.1134,0.0603007,-0.705311,1.10368,0.0137168,0.00971005,1345,0.0061478,3.48722
3,1,Potentiostatic EIS,916.249,3.48722,-0.00757695,208931,0.676239,85.0379,0.0584929,-0.673705,0.954957,0.0147202,0.00995436,1350,0.00646146,3.48722
3,1,Potentiostatic EIS,920.325,3.48719,-0.00795496,199528,0.645565,84.991,0.0563663,-0.6431,1.00898,0.0153908,0.00993576,1355,0.00679104,3.48719
3,1,Potentiostatic EIS,924.477,3.4872,-0.00793989,190547,0.619076,84.7923,0.0561915,-0.616521,1.01692,0.0160776,0.00995334,1355,0.00711109,3.4872
3,1,Potentiostatic EIS,928.732,3.48717,-0.00817879,181971,0.593992,84.5531,0.0563835,-0.59131,1.13183,0.0167047,0.00992251,1360,0.0074737,3.48717
3,1,Potentiostatic EIS,933.103,3.48714,-0.00913703,173781,0.568017,84.3801,0.0556254,-0.565287,1.01594,0.0175138,0.00994816,1365,0.0078547,3.48714
3,1,Potentiostatic EIS,937.591,3.48717,-0.00822415,165960,0.543614,84.2256,0.054694,-0.540856,1.2292,0.0183185,0.00995822,1375,0.00828513,3.48717
3,1,Potentiostatic EIS,942.189,3.48717,-0.00810208,158491,0.520233,83.9761,0.0545954,-0.517361,1.09749,0.0191559,0.00996557,1360,0.00858096,3.48717
3,1,Potentiostatic EIS,946.903,3.48714,-0.00883939,151357,0.497787,83.9669,0.0523188,-0.49503,1.04565,0.0200367,0.00997403,1350,0.00891929,3.48714
3,1,Potentiostatic EIS,951.735,3.48713,-0.00907647,144545,0.47709,84.0021,0.0498523,-0.474478,1.05746,0.0208749,0.0099592,1355,0.00937423,3.48713
3,1,Potentiostatic EIS,956.716,3.48709,-0.0100126,138040,0.456017,83.728,0.0498196,-0.453288,1.20414,0.0218793,0.00997738,1365,0.00988847,3.48709
3,1,Potentiostatic EIS,962.059,3.48709,-0.010251,131826.75,0.437564,83.5968,0.0487991,-0.434834,1.33042,0.0228245,0.00998726,1365,0.0103545,3.48709
3,1,Potentiostatic EIS,967.333,3.48705,-0.0103876,125894,0.418305,83.3471,0.0484627,-0.415488,1.16875,0.023895,0.0099954,1370,0.0108822,3.48705
3,1,Potentiostatic EIS,972.757,3.48705,-0.0106885,120228,0.400402,83.1408,0.0478203,-0.397536,1.22703,0.0249716,0.00999868,1370,0.0113951,3.48705
3,1,Potentiostatic EIS,978.359,3.48706,-0.0101168,114816,0.384005,82.989,0.0468718,-0.381133,1.2784,0.026004,0.00998568,1360,0.011845,3.48706
3,1,Potentiostatic EIS,984.132,3.48702,-0.0108843,109649,0.366184,82.756,0.0461739,-0.363261,1.28071,0.0273241,0.0100057,1365,0.0124488,3.48702
3,1,Potentiostatic EIS,990.078,3.48703,-0.0108817,104714,0.351011,82.6596,0.0448463,-0.348134,1.23976,0.0284261,0.00997788,1370,0.0130833,3.48703
3,1,Potentiostatic EIS,996.203,3.48703,-0.0108091,100001,0.335716,82.4936,0.0438568,-0.332839,1.3743,0.0297478,0.0099869,1370,0.0136999,3.48703
3,1,Potentiostatic EIS,1002.02,3.48701,-0.0111543,95500.1,0.321775,82.255,0.0433636,-0.31884,1.32861,0.0309616,0.00996268,1370,0.0143455,3.48701
3,1,Potentiostatic EIS,1008.01,3.48701,-0.0111134,91202,0.308281,82.1589,0.0420576,-0.305399,1.37033,0.0324007,0.0099886,1370,0.0150216,3.48701
3,1,Potentiostatic EIS,1014.2,3.48697,-0.0111207,87097.2,0.295286,81.9294,0.0414561,-0.292361,1.31244,0.0338416,0.00999292,1355,0.0155573,3.48697
3,1,Potentiostatic EIS,1020.63,3.487,-0.0109203,83177.3,0.282749,81.5972,0.0413187,-0.279714,1.37287,0.0353038,0.00998211,1365,0.0164107,3.487
3,1,Potentiostatic EIS,1027.25,3.48695,-0.0115157,79433.6,0.271215,81.4365,0.0403853,-0.268192,1.50949,0.0368597,0.00999695,1365,0.0171842,3.48695
3,1,Potentiostatic EIS,1034.08,3.48693,-0.0118378,75858.6,0.259224,81.2251,0.0395453,-0.25619,1.39808,0.0384621,0.00997034,1370,0.0180599,3.48693
3,1,Potentiostatic EIS,1041.16,3.48694,-0.0113945,72444.3,0.248078,80.876,0.0393382,-0.244939,1.41803,0.0402198,0.00997767,1370,0.0189111,3.48694
3,1,Potentiostatic EIS,1048.46,3.48692,-0.0115613,69183.9,0.2375,80.7328,0.0382466,-0.234401,1.45072,0.0420086,0.00997712,1365,0.01973,3.48692
3,1,Potentiostatic EIS,1055,3.48689,-0.0118472,66070.1,0.227273,80.5789,0.0372023,-0.224207,1.52884,0.0438515,0.00996626,1350,0.0204329,3.48689
3,1,Potentiostatic EIS,1057.53,3.48685,-0.0122914,63096.5,0.217208,80.3461,0.0364247,-0.214132,1.52481,0.0459273,0.00997574,1290,0.0204449,3.48685
3,1,Potentiostatic EIS,1060.05,3.48687,-0.01233,60256.7,0.208851,80.006,0.0362451,-0.205682,1.49522,0.047744,0.00997139,1230,0.0204127,3.48687
3,1,Potentiostatic EIS,1062.59,3.48694,-0.0113555,57544.7,0.200379,79.6589,0.0359697,-0.197124,1.61649,0.0495585,0.00993046,1175,0.0204189,3.48694
3,1,Potentiostatic EIS,1065.12,3.48692,-0.0122986,54954.7,0.19192,79.4346,0.0351901,-0.188666,1.45239,0.0516164,0.00990627,1125,0.0204714,3.48692
3,1,Potentiostatic EIS,1067.66,3.48682,-0.0125402,52481.4,0.183776,79.0136,0.0350234,-0.180408,1.53441,0.0536673,0.00986293,1070,0.0203882,3.48682
3,1,Potentiostatic EIS,1070.21,3.48686,-0.0122307,50119.3,0.175633,79.1785,0.0329752,-0.17251,1.58669,0.0558795,0.00981321,1025,0.0204512,3.48686
3,1,Potentiostatic EIS,1070.47,3.48689,-0.0119004,50000,0.176116,79.0933,0.0333228,-0.172934,1.45317,0.0561445,0.00989365,1020,0.0204,3.48689