Folder: feature-extraction-paper-2024/Data/P190_04/EIS_04_P190_04_5

Note: README.md
# feature-extraction-paper-2024
Repository for code used and referenced in 2024 feature extraction paper

File: 2_EIS_04_P190_04_5 20231005 161016.csv
Step number,Repeats,Step name,Elapsed Time  (s),DC Working Electrode (V),DC Current (A),Frequency (Hz),|Z| (Ohms),Phase (deg),Z' (Ohms),-Z" (Ohms),THD (%),Amplitude (A),Amplitude (V),No of Cycles,Duration of Each Frequency (s),IR Compensated DC Working Electrode (V)
2,1,Potentiostatic EIS,60.3005,3.50556,-0.0157244,1000000,1.91097,86.3926,0.120237,-1.90718,1.6971,0.00524281,0.010019,1430,0.00143,3.50556
2,1,Potentiostatic EIS,61.0554,3.50548,-0.0189602,707946,1.38065,85.7636,0.101991,-1.37688,1.50092,0.0072561,0.0100181,1340,0.0018928,3.50548
2,1,Potentiostatic EIS,61.8499,3.50535,-0.0220296,501187,0.989602,85.1378,0.0838784,-0.986041,1.72332,0.0100183,0.00991471,1385,0.00276344,3.50535
2,1,Potentiostatic EIS,62.7533,3.50525,-0.0247914,354813,0.712777,84.1664,0.0724471,-0.709086,1.85093,0.0139281,0.00992772,1365,0.00384709,3.50525
2,1,Potentiostatic EIS,63.8104,3.50512,-0.0279057,251189,0.515405,82.8473,0.0641753,-0.511394,1.85872,0.019309,0.00995205,1340,0.00533464,3.50512
2,1,Potentiostatic EIS,65.2188,3.50499,-0.0316054,177828,0.374285,81.6692,0.0542294,-0.370335,2.01047,0.026496,0.00991705,1355,0.00761973,3.50499
2,1,Potentiostatic EIS,66.8052,3.50485,-0.03523,125892,0.272341,80.3001,0.0458862,-0.268448,2.1146,0.0366048,0.00996905,1370,0.0108823,3.50485
2,1,Potentiostatic EIS,68.6732,3.50471,-0.0390476,89125.1,0.198155,78.6615,0.0389584,-0.194288,2.18029,0.0503158,0.00997037,1365,0.0153156,3.50471
2,1,Potentiostatic EIS,71.1232,3.50509,-0.0206489,63095.7,0.144491,76.7036,0.0332314,-0.140618,3.82424,0.0691903,0.00999756,1290,0.0204451,3.50509
2,1,Potentiostatic EIS,71.7875,3.50525,-0.0209115,44668.3,0.106191,73.4777,0.0301995,-0.101806,4.92083,0.0942991,0.0100134,910,0.0203724,3.50525
2,1,Potentiostatic EIS,72.4524,3.50519,-0.0208864,31622.8,0.0790963,70.1295,0.0268845,-0.0743872,5.63036,0.127441,0.0100801,645,0.0203967,3.50519
2,1,Potentiostatic EIS,73.1207,3.50551,-0.00845279,22387.2,0.0586409,65.5932,0.0242311,-0.0534004,6.60062,0.171336,0.0100471,455,0.0203241,3.50551
2,1,Potentiostatic EIS,73.7841,3.50561,-0.00675998,15848.9,0.0450455,59.6673,0.0227489,-0.0388791,6.6793,0.222647,0.0100296,320,0.0201906,3.50561
2,1,Potentiostatic EIS,74.481,3.50575,-0.00612433,11220.2,0.0356077,52.077,0.0218846,-0.0280886,6.54754,0.281533,0.0100246,225,0.0200532,3.50575
2,1,Potentiostatic EIS,75.3432,3.50588,-0.00497489,7943.27,0.0290907,45.3627,0.0204396,-0.0207,3.5951,0.348182,0.0101289,244,0.0307178,3.50588
2,1,Potentiostatic EIS,75.9775,3.5059,-0.00439592,5623.41,0.0239477,34.8187,0.0196602,-0.0136737,4.1674,0.423086,0.0101319,172,0.0305864,3.5059
2,1,Potentiostatic EIS,76.6125,3.50595,-0.00274236,3981.07,0.0219878,25.308,0.0198775,-0.00939945,3.97061,0.468431,0.0102998,122,0.0306451,3.50595
2,1,Potentiostatic EIS,77.2051,3.50599,-0.00168829,2818.38,0.020873,17.501,0.0199068,-0.00627697,3.70542,0.420304,0.00877298,86,0.030514,3.50599
2,1,Potentiostatic EIS,77.7081,3.50599,-0.00229773,1995.26,0.0203823,11.086,0.0200019,-0.00391916,3.00214,0.50758,0.0103456,61,0.0305725,3.50599
2,1,Potentiostatic EIS,78.2091,3.50603,-0.00102622,1412.53,0.0203531,5.97941,0.0202424,-0.00212021,2.57812,0.49692,0.0101139,43,0.0304417,3.50603
2,1,Potentiostatic EIS,78.5772,3.50602,-0.00106128,999.999,0.02059,2.13621,0.0205756,-0.000767496,2.2369,0.502038,0.0103369,30,0.03,3.50602
2,1,Potentiostatic EIS,78.9454,3.50606,-0.00027769,707.945,0.0210196,-0.775744,0.0210177,0.000284582,2.07357,0.482882,0.01015,21,0.0296633,3.50606
2,1,Potentiostatic EIS,79.3137,3.50604,-0.00062377,501.185,0.0215677,-2.87519,0.0215406,0.00108185,1.98165,0.466177,0.0100544,15,0.029929,3.50604
2,1,Potentiostatic EIS,79.5952,3.50606,0.000121797,354.813,0.0222178,-4.3682,0.0221533,0.00169223,1.87849,0.396175,0.00880213,10,0.0281839,3.50606
2,1,Potentiostatic EIS,79.8335,3.50606,0.000103967,251.188,0.0229551,-5.3919,0.0228535,0.00215703,1.64603,0.410621,0.00942583,8,0.0318487,3.50606
2,1,Potentiostatic EIS,80.0998,3.50606,-0.000293598,177.828,0.0237297,-5.89866,0.0236041,0.00243869,1.35924,0.409587,0.00971939,8,0.0449874,3.50606
2,1,Potentiostatic EIS,80.4172,3.50605,-0.000509597,125.892,0.0244895,-6.0299,0.024354,0.00257256,1.10398,0.401422,0.00983065,8,0.0635464,3.50605
2,1,Potentiostatic EIS,80.804,3.50605,-0.000109178,89.1248,0.0252541,-5.90174,0.0251202,0.0025967,0.875759,0.391141,0.00987791,8,0.0897617,3.50605
2,1,Potentiostatic EIS,81.3023,3.50604,-0.000614699,63.0956,0.025927,-5.45778,0.0258095,0.00246598,0.645191,0.381176,0.00988275,8,0.126792,3.50604
2,1,Potentiostatic EIS,81.9449,3.50607,-0.000157155,44.6682,0.0265381,-4.93152,0.0264399,0.00228135,0.474977,0.365301,0.00969442,8,0.179098,3.50607
2,1,Potentiostatic EIS,82.6301,3.50606,-0.000703891,31.6227,0.0270575,-4.33037,0.0269802,0.00204304,0.387327,0.364891,0.00987308,2,0.0632458,3.50606
2,1,Potentiostatic EIS,83.1175,3.50605,-0.000437812,22.3871,0.0274789,-3.73433,0.0274206,0.00178971,0.359377,0.352499,0.00968617,2,0.0893371,3.50605
2,1,Potentiostatic EIS,83.7866,3.50607,-0.000218802,15.8489,0.027799,-3.16913,0.0277565,0.00153683,0.310442,0.352645,0.00980318,2,0.126192,3.50607
2,1,Potentiostatic EIS,84.7113,3.50605,-0.000589164,11.2201,0.0280541,-2.66488,0.0280237,0.00130435,0.316466,0.351717,0.00986715,2,0.178251,3.50605
2,1,Potentiostatic EIS,85.9958,3.50605,-0.000980552,7.94325,0.0282511,-2.30256,0.0282283,0.00113503,0.31163,0.350607,0.00990503,2,0.251786,3.50605
2,1,Potentiostatic EIS,87.7897,3.50606,-0.00121608,5.62339,0.0284183,-2.01129,0.0284008,0.000997383,0.312481,0.348946,0.00991649,2,0.355657,3.50606
2,1,Potentiostatic EIS,90.3006,3.50606,-0.0012254,3.98106,0.0285499,-1.81771,0.0285356,0.000905593,0.323363,0.34756,0.0099228,2,0.502378,3.50606
2,1,Potentiostatic EIS,93.8151,3.50606,-0.00168183,2.81837,0.0286679,-1.72953,0.0286548,0.000865239,0.253216,0.346411,0.00993087,2,0.70963,3.50606
2,1,Potentiostatic EIS,98.7559,3.50606,-0.00173337,1.99526,0.0288014,-1.70793,0.0287886,0.000858417,0.252201,0.344657,0.00992662,2,1.00238,3.50606
2,1,Potentiostatic EIS,105.716,3.50605,-0.0018114,1.41253,0.0289355,-1.70928,0.0289226,0.000863091,0.273925,0.343365,0.00993543,2,1.4159,3.50605
2,1,Potentiostatic EIS,115.528,3.50605,-0.00191689,0.999995,0.0290458,-1.83412,0.0290309,0.000929637,0.254667,0.342015,0.00993408,2,2.00001,3.50605
2,1,Potentiostatic EIS,129.372,3.50606,-0.00176273,0.707944,0.0291945,-2.02829,0.0291762,0.00103328,0.289407,0.340285,0.00993444,2,2.82508,3.50606
2,1,Potentiostatic EIS,148.912,3.50606,-0.00142192,0.501186,0.0293588,-2.30054,0.0293351,0.0011785,0.285382,0.338322,0.00993271,2,3.99054,3.50606
2,1,Potentiostatic EIS,176.496,3.50607,-0.0014725,0.354812,0.0295581,-2.64968,0.0295265,0.00136645,0.266975,0.336181,0.00993688,2,5.63679,3.50607
2,1,Potentiostatic EIS,215.427,3.50607,-0.00111843,0.251188,0.0297874,-3.07562,0.0297445,0.00159821,0.243251,0.333554,0.00993571,2,7.96218,3.50607
2,1,Potentiostatic EIS,270.4,3.50607,-0.00129388,0.177827,0.030063,-3.62794,0.0300028,0.00190231,0.247211,0.330668,0.00994085,2,11.2469,3.50607
2,1,Potentiostatic EIS,348.049,3.50606,-0.00115191,0.125892,0.0303954,-4.28705,0.0303104,0.00227216,0.251811,0.326828,0.00993404,2,15.8867,3.50606
2,1,Potentiostatic EIS,457.702,3.50607,-0.000969405,0.0891246,0.030791,-5.17066,0.0306657,0.00277497,0.25599,0.322848,0.00994085,2,22.4405,3.50607
2,1,Potentiostatic EIS,612.559,3.50607,-0.000734218,0.0630955,0.0313063,-6.18424,0.0311241,0.0033725,0.271365,0.317476,0.00993901,2,31.698,3.50607
2,1,Potentiostatic EIS,822.582,3.50606,-0.0002279,0.05,0.0317038,-7.06798,0.0314629,0.00390105,0.26631,0.313424,0.00993672,2,40,3.50606