Folder: feature-extraction-paper-2024/Data/P190_04/EIS_08_P190_04_3

Note: README.md
# feature-extraction-paper-2024
Repository for code used and referenced in 2024 feature extraction paper

File: 3_EIS_08_P190_04_3 20231019 134503.csv
Step number,Repeats,Step name,Elapsed Time  (s),DC Working Electrode (V),DC Current (A),Frequency (Hz),|Z| (Ohms),Phase (deg),Z' (Ohms),-Z" (Ohms),THD (%),Amplitude (A),Amplitude (V),No of Cycles,Duration of Each Frequency (s),IR Compensated DC Working Electrode (V)
3,1,Potentiostatic EIS,821.816,3.48772,-0.0393079,1000000,3.33747,88.2586,0.101422,-3.33593,1.10681,0.00300168,0.010018,1430,0.00143,3.48772
3,1,Potentiostatic EIS,824.116,3.48768,-0.0227575,954993,3.18135,88.2612,0.0965318,-3.17989,1.14582,0.00309022,0.0098309,1425,0.00149216,3.48768
3,1,Potentiostatic EIS,826.389,3.48764,-0.0187517,912011,3.0344,88.3357,0.0881302,-3.03312,1.00848,0.00325287,0.00987055,1425,0.00156248,3.48764
3,1,Potentiostatic EIS,828.676,3.48762,-0.0165006,870964,2.90488,88.2247,0.0899923,-2.90349,0.977391,0.00339744,0.00986914,1390,0.00159593,3.48762
3,1,Potentiostatic EIS,830.976,3.48762,-0.014665,831764.375,2.7822,88.18,0.0883614,-2.7808,1.02367,0.0035457,0.00986471,1400,0.00168317,3.48762
3,1,Potentiostatic EIS,833.295,3.4876,-0.0136348,794329,2.66513,88.069,0.0898025,-2.66362,1.20649,0.00372024,0.009915,1445,0.00181915,3.4876
3,1,Potentiostatic EIS,835.598,3.4876,-0.0126793,758578,2.54846,87.901,0.0933409,-2.54675,1.06288,0.00388365,0.00989726,1370,0.00180601,3.4876
3,1,Potentiostatic EIS,837.917,3.48759,-0.0119199,724437,2.43201,88.0801,0.0814762,-2.43065,1.00383,0.00406558,0.00988727,1340,0.00184971,3.48759
3,1,Potentiostatic EIS,840.241,3.48759,-0.0115655,691832,2.3303,87.9974,0.0814337,-2.32888,1.07595,0.00425858,0.0099238,1350,0.00195134,3.48759
3,1,Potentiostatic EIS,842.609,3.48757,-0.0113615,660695,2.22738,87.7968,0.0856272,-2.22574,1.13477,0.00445749,0.00992852,1400,0.00211898,3.48757
3,1,Potentiostatic EIS,844.988,3.48757,-0.0108831,630959,2.12858,87.4593,0.0943599,-2.12649,1.06102,0.00465947,0.00991816,1355,0.00214753,3.48757
3,1,Potentiostatic EIS,847.389,3.48756,-0.0106627,602560.875,2.03367,87.4174,0.0916349,-2.03161,0.996986,0.00485283,0.0098694,1350,0.00224044,3.48756
3,1,Potentiostatic EIS,849.81,3.48755,-0.0106247,575441.125,1.94596,87.5267,0.0839762,-1.94414,1.09799,0.00504355,0.00981425,1385,0.00240685,3.48755
3,1,Potentiostatic EIS,852.245,3.48756,-0.0103572,549542,1.85676,87.54,0.0796954,-1.85505,1.10024,0.00525013,0.00974844,1345,0.00244749,3.48756
3,1,Potentiostatic EIS,854.72,3.48754,-0.0104393,524808.75,1.77801,87.605,0.0743011,-1.77646,1.12282,0.00545795,0.00970431,1345,0.00256284,3.48754
3,1,Potentiostatic EIS,857.26,3.48753,-0.0101655,501188,1.69759,87.5565,0.0723745,-1.69605,1.01181,0.00587881,0.00997978,1385,0.00276343,3.48753
3,1,Potentiostatic EIS,859.988,3.48753,-0.0099932,478631,1.62469,87.4394,0.0725839,-1.62306,1.11339,0.00612567,0.00995233,1365,0.00285188,3.48753
3,1,Potentiostatic EIS,862.726,3.48753,-0.00983523,457090,1.55275,87.0451,0.0800432,-1.55069,1.15735,0.00639915,0.00993632,1380,0.0030191,3.48753
3,1,Potentiostatic EIS,865.48,3.48752,-0.00983205,436517,1.48695,86.9344,0.07952,-1.48483,1.08306,0.00669454,0.00995443,1345,0.00308121,3.48752
3,1,Potentiostatic EIS,868.231,3.4875,-0.00938335,416871,1.42065,86.8755,0.0774324,-1.41854,1.01051,0.00700204,0.00994747,1355,0.00325041,3.4875
3,1,Potentiostatic EIS,870.985,3.48752,-0.0090909,398109,1.3606,86.7516,0.0770984,-1.35841,1.2051,0.00730626,0.00994094,1400,0.00351663,3.48752
3,1,Potentiostatic EIS,873.761,3.4875,-0.00930427,380191,1.29897,86.7721,0.0731432,-1.29691,1.13859,0.00765878,0.00994859,1400,0.00368236,3.4875
3,1,Potentiostatic EIS,876.602,3.48749,-0.00963791,363079,1.23845,86.5476,0.0745788,-1.2362,1.14871,0.00800977,0.00991977,1365,0.00375951,3.48749
3,1,Potentiostatic EIS,879.479,3.48747,-0.00978327,346738,1.18259,86.6274,0.0695706,-1.18054,1.174,0.00840592,0.0099408,1375,0.00396553,3.48747
3,1,Potentiostatic EIS,882.418,3.48748,-0.00967187,331132.5,1.13239,86.6211,0.0667424,-1.13042,1.13595,0.00877095,0.00993221,1355,0.00409202,3.48748
3,1,Potentiostatic EIS,885.406,3.48747,-0.00996568,316229,1.08202,86.3643,0.0686132,-1.07985,1.13051,0.00917594,0.00992859,1370,0.0043323,3.48747
3,1,Potentiostatic EIS,888.466,3.48746,-0.00990455,301997,1.03752,86.0761,0.0709987,-1.03509,1.09027,0.00957639,0.00993577,1365,0.00451992,3.48746
3,1,Potentiostatic EIS,891.57,3.48747,-0.00961605,288405,0.991219,86.1459,0.0666265,-0.988977,1.05646,0.0100086,0.00992075,1340,0.00464625,3.48747
3,1,Potentiostatic EIS,894.754,3.48745,-0.00977449,275424,0.951436,85.9041,0.0679566,-0.949006,1.1862,0.0104611,0.00995315,1355,0.00491968,3.48745
3,1,Potentiostatic EIS,897.998,3.48746,-0.00936092,263028,0.90965,85.8885,0.0652203,-0.907309,1.11015,0.0109526,0.00996302,1355,0.00515154,3.48746
3,1,Potentiostatic EIS,901.398,3.48744,-0.00963375,251190,0.870911,85.7159,0.0650595,-0.868477,1.22346,0.0114377,0.00996121,1340,0.00533461,3.48744
3,1,Potentiostatic EIS,904.857,3.48743,-0.00992862,239885,0.831474,85.7301,0.0619068,-0.829166,1.18925,0.012007,0.0099835,1365,0.00569023,3.48743
3,1,Potentiostatic EIS,908.35,3.48742,-0.00974583,229088.125,0.795813,85.6911,0.0597926,-0.793564,0.98271,0.012462,0.00991746,1380,0.00602388,3.48742
3,1,Potentiostatic EIS,911.907,3.48738,-0.0106321,218777,0.760318,85.6371,0.0578398,-0.758114,1.05415,0.0129546,0.00984982,1345,0.0061478,3.48738
3,1,Potentiostatic EIS,915.553,3.48738,-0.0101737,208931,0.726965,85.6553,0.0550729,-0.724876,1.29972,0.0134344,0.00976686,1350,0.00646146,3.48738
3,1,Potentiostatic EIS,919.281,3.48738,-0.010302,199528,0.693839,85.5229,0.0541609,-0.691722,1.11215,0.0139482,0.00967798,1355,0.00679104,3.48738
3,1,Potentiostatic EIS,923.086,3.4874,-0.009696,190547,0.664144,85.3888,0.0533936,-0.661994,1.13311,0.0145065,0.00963419,1355,0.00711109,3.4874
3,1,Potentiostatic EIS,927.36,3.48737,-0.0103761,181971,0.637425,85.1556,0.0538311,-0.635148,1.15738,0.0156281,0.00996174,1360,0.0074737,3.48737
3,1,Potentiostatic EIS,931.732,3.48735,-0.0107972,173781,0.610692,84.9905,0.0533259,-0.608359,1.16161,0.0163092,0.0099599,1365,0.0078547,3.48735
3,1,Potentiostatic EIS,936.212,3.48735,-0.0103615,165960,0.584678,84.7876,0.0531169,-0.58226,1.11143,0.0170412,0.00996363,1375,0.00828513,3.48735
3,1,Potentiostatic EIS,940.806,3.48734,-0.0109529,158491,0.559038,84.6672,0.0519573,-0.556618,1.33466,0.0178301,0.00996775,1360,0.00858096,3.48734
3,1,Potentiostatic EIS,945.546,3.48733,-0.0112728,151357,0.535083,84.6808,0.0496048,-0.532779,1.33125,0.0186279,0.00996746,1350,0.00891929,3.48733
3,1,Potentiostatic EIS,950.401,3.48734,-0.0104546,144545,0.51277,84.5389,0.0488001,-0.510442,1.04211,0.019504,0.0100011,1355,0.00937423,3.48734
3,1,Potentiostatic EIS,955.413,3.48732,-0.0106403,138040,0.490108,84.5656,0.0464161,-0.487905,1.30102,0.0203505,0.00997398,1365,0.00988847,3.48732
3,1,Potentiostatic EIS,960.571,3.48728,-0.0113398,131826.75,0.468655,84.4272,0.0455116,-0.46644,1.52351,0.0212814,0.00997373,1365,0.0103545,3.48728
3,1,Potentiostatic EIS,966.095,3.48727,-0.0115692,125894,0.449588,84.1091,0.0461434,-0.447214,1.2245,0.0221776,0.00997077,1370,0.0108822,3.48727
3,1,Potentiostatic EIS,971.532,3.48727,-0.0116903,120228,0.429508,84.0422,0.0445809,-0.427188,1.35878,0.0232811,0.00999946,1370,0.0113951,3.48727
3,1,Potentiostatic EIS,977.151,3.48725,-0.0117841,114816,0.411628,83.693,0.0452196,-0.409137,1.25377,0.0242565,0.00998469,1360,0.011845,3.48725
3,1,Potentiostatic EIS,982.924,3.48722,-0.0121966,109649,0.393204,83.6025,0.0438132,-0.390755,1.1335,0.0253711,0.00997604,1365,0.0124488,3.48722
3,1,Potentiostatic EIS,988.879,3.48722,-0.0119689,104714,0.376296,83.6142,0.0418527,-0.373961,1.26063,0.0265256,0.00998143,1370,0.0130833,3.48722
3,1,Potentiostatic EIS,995.033,3.48719,-0.012344,100001,0.360229,83.3364,0.0418006,-0.357796,1.46642,0.0276855,0.00997313,1370,0.0136999,3.48719
3,1,Potentiostatic EIS,1000.86,3.4872,-0.0123664,95500.1,0.344871,83.2378,0.0406079,-0.342471,1.38643,0.0289526,0.00998496,1370,0.0143455,3.4872
3,1,Potentiostatic EIS,1006.86,3.48718,-0.0121069,91202,0.330323,83.0889,0.0397478,-0.327923,1.41306,0.0302273,0.0099848,1370,0.0150216,3.48718
3,1,Potentiostatic EIS,1013.05,3.48717,-0.0126445,87097.2,0.316144,82.9234,0.0389478,-0.313736,1.37788,0.0316137,0.00999456,1355,0.0155573,3.48717
3,1,Potentiostatic EIS,1019.46,3.48716,-0.0121886,83177.3,0.302965,82.6312,0.0388569,-0.300463,1.5254,0.0329667,0.00998778,1365,0.0164107,3.48716
3,1,Potentiostatic EIS,1026.07,3.48716,-0.0123993,79433.6,0.28993,82.4453,0.0381178,-0.287413,1.48122,0.034471,0.00999423,1365,0.0171842,3.48716
3,1,Potentiostatic EIS,1032.91,3.48714,-0.0122978,75858.6,0.277303,82.2943,0.0371822,-0.274799,1.287,0.0359961,0.00998184,1370,0.0180599,3.48714
3,1,Potentiostatic EIS,1039.99,3.48713,-0.0121206,72444.3,0.26508,82.0788,0.0365308,-0.26255,1.439,0.0376391,0.00997743,1370,0.0189111,3.48713
3,1,Potentiostatic EIS,1047.31,3.4871,-0.0126065,69183.9,0.253933,81.8484,0.0360058,-0.251368,1.41124,0.0392128,0.00995748,1365,0.01973,3.4871
3,1,Potentiostatic EIS,1053.87,3.4871,-0.012807,66070.1,0.243357,81.6525,0.0353297,-0.240779,1.41557,0.0409964,0.00997682,1350,0.0204329,3.4871
3,1,Potentiostatic EIS,1056.4,3.48707,-0.0137477,63096.5,0.232532,81.6831,0.0336355,-0.230087,1.51221,0.042844,0.00996262,1290,0.0204449,3.48707
3,1,Potentiostatic EIS,1058.94,3.48707,-0.0138686,60256.7,0.223087,81.3176,0.0336767,-0.22053,1.49403,0.0446645,0.00996411,1230,0.0204127,3.48707
3,1,Potentiostatic EIS,1061.49,3.48703,-0.0139465,57544.7,0.213867,81.0316,0.0333397,-0.211252,1.58001,0.046725,0.00999296,1175,0.0204189,3.48703
3,1,Potentiostatic EIS,1064.03,3.48705,-0.0144227,54954.7,0.20468,80.7886,0.0327645,-0.202041,1.5731,0.0486609,0.00995991,1125,0.0204714,3.48705
3,1,Potentiostatic EIS,1066.58,3.48707,-0.0139622,52481.4,0.196026,80.5687,0.0321218,-0.193376,1.73717,0.0508675,0.00997132,1070,0.0203882,3.48707
3,1,Potentiostatic EIS,1069.15,3.48707,-0.0139244,50119.3,0.187295,80.2184,0.0318202,-0.184572,1.66355,0.0528433,0.00989772,1025,0.0204512,3.48707
3,1,Potentiostatic EIS,1069.4,3.48697,-0.0146634,50000,0.185368,80.475,0.0306743,-0.182812,1.71704,0.0536018,0.00993745,1020,0.0204,3.48697