Folder: feature-extraction-paper-2024/Data/P180/P180_03/EIS_02_P180_03_3

Note: README.md
# feature-extraction-paper-2024
Repository for code used and referenced in 2024 feature extraction paper

File: 2_EIS_02_P180_03_3 20230821 143218.csv
Step number,Repeats,Step name,Elapsed Time  (s),DC Working Electrode (V),DC Current (A),Frequency (Hz),|Z| (Ohms),Phase (deg),Z' (Ohms),-Z" (Ohms),THD (%),Amplitude (A),Amplitude (V),No of Cycles,Duration of Each Frequency (s),IR Compensated DC Working Electrode (V)
2,1,Potentiostatic EIS,0,3.73894,-0.0132842,1000000,1.4522,85.7466,0.107706,-1.4482,1.02434,0.00693845,0.010076,1430,0.00143,3.73894
2,1,Potentiostatic EIS,0.250874,3.73882,-0.0155233,794328,1.17228,85.214,0.0978079,-1.1682,1.24922,0.0085326,0.0100027,1445,0.00181915,3.73882
2,1,Potentiostatic EIS,0.510617,3.73874,-0.0170221,630957.375,0.940041,84.7615,0.0858279,-0.936114,1.14696,0.0104254,0.00979982,1355,0.00214753,3.73874
2,1,Potentiostatic EIS,0.809721,3.73865,-0.0187086,501187.25,0.756238,84.659,0.070393,-0.752955,1.37186,0.0131831,0.00996969,1385,0.00276344,3.73865
2,1,Potentiostatic EIS,1.11704,3.73854,-0.0202521,398107,0.606739,83.6513,0.0670928,-0.603018,1.4462,0.0164385,0.00997393,1400,0.00351664,3.73854
2,1,Potentiostatic EIS,1.44506,3.73848,-0.0215572,316228,0.486125,82.9582,0.0595958,-0.482458,1.83227,0.0204305,0.00993181,1370,0.00433232,3.73848
2,1,Potentiostatic EIS,1.83717,3.73839,-0.0232721,251189,0.393359,81.9712,0.054941,-0.389503,1.85014,0.0253803,0.00998358,1340,0.00533464,3.73839
2,1,Potentiostatic EIS,2.28499,3.73824,-0.025715,199526,0.315774,81.3528,0.0474766,-0.312185,2.08299,0.0314583,0.00993375,1355,0.00679109,3.73824
2,1,Potentiostatic EIS,2.79922,3.73812,-0.0277249,158489,0.255442,79.9296,0.044666,-0.251507,2.1406,0.0390126,0.00996547,1360,0.00858102,3.73812
2,1,Potentiostatic EIS,3.38074,3.73798,-0.0300573,125893,0.207119,78.6721,0.0406831,-0.203085,2.31151,0.0482615,0.00999587,1370,0.0108823,3.73798
2,1,Potentiostatic EIS,4.31981,3.73787,-0.0311411,100000,0.167231,77.0372,0.0375129,-0.162969,2.18113,0.0596195,0.00997022,1370,0.0137,3.73787
2,1,Potentiostatic EIS,5.41956,3.73853,-0.0171171,79432.8,0.135998,75.0323,0.0351248,-0.131384,5.82662,0.0735376,0.010001,1365,0.0171843,3.73853
2,1,Potentiostatic EIS,5.63563,3.73852,-0.0174727,63095.7,0.110815,72.8825,0.0326163,-0.105906,4.62506,0.089201,0.00988494,1290,0.0204451,3.73852
2,1,Potentiostatic EIS,5.85929,3.7385,-0.0176461,50118.75,0.0909769,70.1576,0.0308807,-0.0855755,5.4255,0.108387,0.00986086,1025,0.0204514,3.7385
2,1,Potentiostatic EIS,6.08538,3.73849,-0.0175926,39810.7,0.0749748,66.9163,0.0293958,-0.0689718,5.91819,0.131767,0.00987895,815,0.0204719,3.73849
2,1,Potentiostatic EIS,6.30694,3.73851,-0.0168473,31622.8,0.0628078,63.2485,0.0282711,-0.0560853,6.45482,0.158521,0.00995644,645,0.0203967,3.73851
2,1,Potentiostatic EIS,6.52891,3.73882,-0.0103786,25118.9,0.0528228,59.1998,0.0270477,-0.0453725,6.70917,0.189115,0.00998971,510,0.0203034,3.73882
2,1,Potentiostatic EIS,6.75062,3.73889,-0.00882492,19952.6,0.0447507,54.5448,0.0259583,-0.0364525,6.65047,0.226634,0.0101421,405,0.0202981,3.73889
2,1,Potentiostatic EIS,6.99331,3.73894,-0.00765739,15848.9,0.0383792,49.275,0.0250397,-0.0290856,6.72091,0.259524,0.00996032,320,0.0201906,3.73894
2,1,Potentiostatic EIS,7.22769,3.73896,-0.00773814,12589.2,0.0338517,43.7487,0.0244538,-0.0234083,6.25414,0.296316,0.0100307,255,0.0202554,3.73896
2,1,Potentiostatic EIS,7.53277,3.73902,-0.00642987,9999.98,0.0305899,38.1138,0.0240677,-0.0188809,2.73029,0.325801,0.00996622,307,0.0307001,3.73902
2,1,Potentiostatic EIS,7.78878,3.73905,-0.00611265,7943.27,0.0280811,33.0836,0.0235284,-0.0153284,3.21154,0.362363,0.0101755,244,0.0307178,3.73905
2,1,Potentiostatic EIS,8.0008,3.73908,-0.00568623,6309.57,0.0253362,27.265,0.0225213,-0.0116067,3.65906,0.378628,0.009593,193,0.0305885,3.73908
2,1,Potentiostatic EIS,8.21374,3.7391,-0.00547624,5011.87,0.0244744,20.39,0.0229409,-0.00852705,3.58586,0.428083,0.0104771,153,0.0305276,3.7391
2,1,Potentiostatic EIS,8.42511,3.73914,-0.00436351,3981.07,0.0240739,15.5295,0.023195,-0.00644542,3.43836,0.425649,0.010247,122,0.0306451,3.73914
2,1,Potentiostatic EIS,8.59463,3.73918,-0.00361707,3162.27,0.0238339,11.5852,0.0233483,-0.00478644,3.39877,0.376859,0.00898203,97,0.0306742,3.73918
2,1,Potentiostatic EIS,8.76411,3.73918,-0.00393023,2511.88,0.0237317,8.26903,0.0234849,-0.00341312,2.92988,0.441939,0.0104879,77,0.0306543,3.73918
2,1,Potentiostatic EIS,8.93046,3.73919,-0.00380514,1995.26,0.0237375,5.47726,0.0236291,-0.00226576,2.81133,0.432411,0.0102644,61,0.0305725,3.73919
2,1,Potentiostatic EIS,9.09708,3.7392,-0.00344015,1584.89,0.0238397,3.10739,0.0238047,-0.00129229,2.56601,0.424056,0.0101094,48,0.030286,3.7392
2,1,Potentiostatic EIS,9.21992,3.73919,-0.00350094,1258.92,0.0239828,1.12039,0.0239782,-0.00046894,2.57758,0.409324,0.00981673,38,0.0301845,3.73919
2,1,Potentiostatic EIS,9.34227,3.73921,-0.00293726,999.999,0.0242163,-0.610492,0.0242149,0.000258022,2.41329,0.424787,0.0102868,30,0.03,3.73921
2,1,Potentiostatic EIS,9.46489,3.73922,-0.00266842,794.328,0.0244821,-2.14588,0.0244649,0.000916707,2.35239,0.414355,0.0101443,24,0.0302142,3.73922
2,1,Potentiostatic EIS,9.58708,3.73923,-0.00289845,630.956,0.024801,-3.50978,0.0247544,0.00151829,2.27951,0.406011,0.0100695,19,0.030113,3.73923
2,1,Potentiostatic EIS,9.71168,3.73925,-0.00212429,501.187,0.0251565,-4.84639,0.0250666,0.00212534,2.18921,0.398872,0.0100342,15,0.029929,3.73925
2,1,Potentiostatic EIS,9.78983,3.73923,-0.00254137,398.107,0.0255974,-6.10373,0.0254523,0.00272174,2.10654,0.34674,0.00887564,12,0.0301427,3.73923
2,1,Potentiostatic EIS,9.86825,3.73923,-0.00265273,316.228,0.0261053,-7.34186,0.0258912,0.00333597,1.94871,0.35899,0.00937153,9,0.0284605,3.73923
2,1,Potentiostatic EIS,9.94899,3.73923,-0.00262933,251.189,0.0267166,-8.53501,0.0264207,0.00396511,1.7482,0.362327,0.00968014,8,0.0318486,3.73923
2,1,Potentiostatic EIS,10.0383,3.73922,-0.00235494,199.526,0.0274447,-9.65878,0.0270556,0.00460467,1.56682,0.359349,0.00986222,8,0.0400951,3.73922
2,1,Potentiostatic EIS,10.1385,3.73923,-0.00238507,158.489,0.028293,-10.7411,0.0277973,0.00527302,1.33296,0.352167,0.00996387,8,0.0504766,3.73923
2,1,Potentiostatic EIS,10.2517,3.73923,-0.0022868,125.892,0.0292793,-11.6989,0.0286711,0.00593693,1.17385,0.341703,0.0100048,8,0.0635464,3.73923
2,1,Potentiostatic EIS,10.3816,3.73924,-0.00217593,100,0.0304381,-12.4999,0.0297166,0.00658795,0.934176,0.329192,0.01002,8,0.08,3.73924
2,1,Potentiostatic EIS,10.6495,3.73924,-0.00252869,79.4327,0.031733,-13.0107,0.0309183,0.00714414,0.767169,0.314927,0.00999359,8,0.100714,3.73924
2,1,Potentiostatic EIS,10.8266,3.73923,-0.00225922,63.0956,0.0331142,-13.2236,0.0322361,0.00757495,0.631238,0.30199,0.0100001,8,0.126792,3.73923
2,1,Potentiostatic EIS,11.0397,3.73924,-0.00208809,50.1186,0.0345566,-13.2654,0.0336346,0.00792943,0.5178,0.284924,0.00984601,8,0.159621,3.73924
2,1,Potentiostatic EIS,11.2976,3.73922,-0.00290152,39.8107,0.0360176,-12.9499,0.0351015,0.00807149,0.402999,0.273712,0.00985843,8,0.200951,3.73922
2,1,Potentiostatic EIS,11.4416,3.73923,-0.00414378,31.6228,0.0373995,-12.5514,0.0365058,0.00812747,0.335575,0.265589,0.00993301,2,0.0632456,3.73923
2,1,Potentiostatic EIS,11.6046,3.73924,-0.00290235,25.1188,0.0387898,-11.9075,0.0379551,0.00800358,0.298487,0.24943,0.00967528,2,0.0796217,3.73924
2,1,Potentiostatic EIS,11.8047,3.73923,-0.00298333,19.9526,0.0400864,-11.2364,0.039318,0.00781113,0.271793,0.244018,0.00978174,2,0.100238,3.73923
2,1,Potentiostatic EIS,12.0517,3.73923,-0.00310255,15.8489,0.0413105,-10.5029,0.0406184,0.00753029,0.220312,0.238298,0.00984417,2,0.126192,3.73923
2,1,Potentiostatic EIS,12.3581,3.73923,-0.00301393,12.5892,0.0424581,-9.75969,0.0418437,0.00719734,0.229832,0.232954,0.00989077,2,0.158866,3.73923
2,1,Potentiostatic EIS,12.7391,3.73923,-0.00300752,9.99998,0.043517,-9.00119,0.0429811,0.00680845,0.21785,0.227635,0.009906,2,0.2,3.73923
2,1,Potentiostatic EIS,13.214,3.73923,-0.00328182,7.94328,0.044532,-8.18675,0.0440781,0.00634135,0.197948,0.22322,0.00994045,2,0.251785,3.73923
2,1,Potentiostatic EIS,13.807,3.73924,-0.00310547,6.30957,0.0453957,-7.37405,0.0450202,0.00582637,0.195311,0.218954,0.00993957,2,0.316979,3.73924
2,1,Potentiostatic EIS,14.5477,3.73923,-0.00322505,5.01186,0.0461838,-6.58339,0.0458793,0.00529493,0.204658,0.215463,0.00995092,2,0.399053,3.73923
2,1,Potentiostatic EIS,15.4746,3.73923,-0.00312389,3.98106,0.0468261,-5.80454,0.046586,0.00473576,0.180082,0.212724,0.00996103,2,0.502378,3.73923
2,1,Potentiostatic EIS,16.639,3.73923,-0.0033214,3.16227,0.0473771,-5.11175,0.0471886,0.00422123,0.190156,0.210199,0.00995859,2,0.632458,3.73923
2,1,Potentiostatic EIS,18.1021,3.73922,-0.0033044,2.51188,0.047813,-4.49686,0.0476658,0.00374875,0.204748,0.208476,0.00996787,2,0.796216,3.73922
2,1,Potentiostatic EIS,19.9405,3.73924,-0.00298218,1.99526,0.0481545,-3.98668,0.048038,0.00334793,0.184505,0.206832,0.00995988,2,1.00238,3.73924
2,1,Potentiostatic EIS,22.2503,3.73924,-0.0032755,1.58489,0.0484473,-3.5685,0.0483533,0.00301545,0.163538,0.205622,0.00996183,2,1.26192,3.73924
2,1,Potentiostatic EIS,25.1547,3.73923,-0.00320907,1.25892,0.0486994,-3.25196,0.048621,0.00276257,0.183179,0.204785,0.00997294,2,1.58866,3.73923
2,1,Potentiostatic EIS,28.8068,3.73924,-0.00281207,0.999998,0.0489159,-3.03576,0.0488472,0.00259055,0.171082,0.203645,0.00996147,2,2,3.73924
2,1,Potentiostatic EIS,33.4018,3.73924,-0.00309107,0.794327,0.0490821,-2.8913,0.0490196,0.00247576,0.169129,0.203002,0.00996377,2,2.51785,3.73924
2,1,Potentiostatic EIS,39.181,3.73924,-0.0028048,0.630956,0.0492778,-2.84924,0.0492169,0.0024495,0.196873,0.202248,0.00996634,2,3.16979,3.73924
2,1,Potentiostatic EIS,46.4549,3.73923,-0.00253154,0.501186,0.0494791,-2.89648,0.0494159,0.00250026,0.222815,0.201483,0.00996917,2,3.99054,3.73923
2,1,Potentiostatic EIS,53.7452,3.73922,-0.00251431,0.5,0.0494341,-2.87979,0.0493717,0.0024836,0.221577,0.201534,0.00996263,2,4,3.73922