Folder: feature-extraction-paper-2024/Data/P180/P180_03/EIS_06_P180_03_2

Note: README.md
# feature-extraction-paper-2024
Repository for code used and referenced in 2024 feature extraction paper

File: 2_EIS_06_P180_03_2 20230824 141758.csv
Step number,Repeats,Step name,Elapsed Time  (s),DC Working Electrode (V),DC Current (A),Frequency (Hz),|Z| (Ohms),Phase (deg),Z' (Ohms),-Z" (Ohms),THD (%),Amplitude (A),Amplitude (V),No of Cycles,Duration of Each Frequency (s),IR Compensated DC Working Electrode (V)
2,1,Potentiostatic EIS,0,3.55603,-0.0112125,1000000,1.98157,87.1005,0.100238,-1.97903,1.01117,0.00507312,0.0100523,1430,0.00143,3.55603
2,1,Potentiostatic EIS,0.248702,3.55595,-0.0126111,794328,1.58987,86.5726,0.0950468,-1.58702,1.22543,0.00629642,0.0100104,1445,0.00181915,3.55595
2,1,Potentiostatic EIS,0.507725,3.55588,-0.0137754,630957.375,1.26807,86.1104,0.0860185,-1.26515,1.1787,0.00787854,0.00999059,1355,0.00214753,3.55588
2,1,Potentiostatic EIS,0.781741,3.55583,-0.0151384,501187.25,1.01823,86.176,0.0679083,-1.01597,1.26683,0.00981044,0.00998932,1385,0.00276344,3.55583
2,1,Potentiostatic EIS,1.07062,3.55577,-0.016293,398107,0.814884,85.1385,0.069059,-0.811953,1.30143,0.0119069,0.00970256,1400,0.00351664,3.55577
2,1,Potentiostatic EIS,1.40113,3.55568,-0.0175947,316228,0.650192,84.7557,0.0594286,-0.64747,1.4476,0.0153168,0.00995891,1370,0.00433232,3.55568
2,1,Potentiostatic EIS,1.76444,3.5556,-0.0188809,251189,0.523811,83.7473,0.0570503,-0.520695,1.46725,0.0190373,0.00997196,1340,0.00533464,3.5556
2,1,Potentiostatic EIS,2.34223,3.55551,-0.0198968,199526,0.418961,83.4186,0.0480188,-0.4162,1.78687,0.0236809,0.00992142,1355,0.00679109,3.55551
2,1,Potentiostatic EIS,2.80648,3.55543,-0.0215095,158489,0.337032,82.1991,0.0457458,-0.333913,1.84961,0.0289808,0.00976782,1360,0.00858102,3.55543
2,1,Potentiostatic EIS,3.38423,3.55532,-0.0234575,125893,0.27257,81.3004,0.0412274,-0.269434,1.7642,0.0367006,0.0100035,1370,0.0108823,3.55532
2,1,Potentiostatic EIS,4.06039,3.55521,-0.0255394,100000,0.218656,79.9687,0.0380868,-0.215313,2.00455,0.0455845,0.0099674,1370,0.0137,3.55521
2,1,Potentiostatic EIS,5.00069,3.55513,-0.0263632,79432.8,0.176622,78.354,0.0356537,-0.172986,2.93097,0.0564561,0.00997141,1365,0.0171843,3.55513
2,1,Potentiostatic EIS,5.4,3.55568,-0.0128401,63095.7,0.142726,76.5561,0.0331829,-0.138815,4.04316,0.0698672,0.00997187,1290,0.0204451,3.55568
2,1,Potentiostatic EIS,5.63342,3.55569,-0.0126598,50118.75,0.11584,74.3008,0.0313448,-0.111519,4.65589,0.0866678,0.0100397,1025,0.0204514,3.55569
2,1,Potentiostatic EIS,5.86029,3.55568,-0.0127307,39810.7,0.0946995,71.5201,0.030017,-0.0898163,5.30654,0.106237,0.0100607,815,0.0204719,3.55568
2,1,Potentiostatic EIS,6.08231,3.55568,-0.0128799,31622.8,0.0780275,68.3777,0.028752,-0.0725369,6.06864,0.129671,0.0101181,645,0.0203967,3.55568
2,1,Potentiostatic EIS,6.30195,3.55602,-0.00489395,25118.9,0.0646068,64.6968,0.0276135,-0.0584083,6.74011,0.156951,0.0101401,510,0.0203034,3.55602
2,1,Potentiostatic EIS,6.52526,3.55607,-0.00386513,19952.6,0.0538169,60.3074,0.026658,-0.0467505,6.98532,0.188258,0.0101315,405,0.0202981,3.55607
2,1,Potentiostatic EIS,6.7483,3.55611,-0.00332298,15848.9,0.0452488,55.4126,0.025686,-0.0372516,6.99169,0.222206,0.0100546,320,0.0201906,3.55611
2,1,Potentiostatic EIS,6.97136,3.55615,-0.00215015,12589.2,0.0391506,49.9628,0.025185,-0.0299747,6.87632,0.255833,0.0100161,255,0.0202554,3.55615
2,1,Potentiostatic EIS,7.27711,3.55611,-0.0026889,9999.98,0.0345141,44.1425,0.0247676,-0.0240372,3.02657,0.289224,0.00998228,307,0.0307001,3.55611
2,1,Potentiostatic EIS,7.48967,3.55618,-0.00132033,7943.27,0.0310128,38.6874,0.0242076,-0.0193852,3.67343,0.284246,0.00881527,244,0.0307178,3.55618
2,1,Potentiostatic EIS,7.70212,3.55618,-0.0014519,6309.57,0.0276461,32.7097,0.023262,-0.0149395,3.9925,0.36785,0.0101696,193,0.0305885,3.55618
2,1,Potentiostatic EIS,7.91347,3.5562,-0.000903238,5011.87,0.0261595,25.1326,0.0236829,-0.0111103,3.95309,0.398919,0.0104355,153,0.0305276,3.5562
2,1,Potentiostatic EIS,8.12619,3.5562,-0.000874442,3981.07,0.0254248,19.4671,0.0239714,-0.00847321,3.76938,0.402919,0.0102441,122,0.0306451,3.5562
2,1,Potentiostatic EIS,8.29482,3.55626,0.000446059,3162.27,0.0249418,14.8201,0.0241121,-0.00637974,3.60152,0.366209,0.00913392,97,0.0306742,3.55626
2,1,Potentiostatic EIS,8.46527,3.55625,0.000350615,2511.88,0.0247167,10.9048,0.0242704,-0.00467585,3.18497,0.424208,0.010485,77,0.0306543,3.55625
2,1,Potentiostatic EIS,8.63361,3.55628,0.00059641,1995.26,0.0246676,7.59518,0.0244512,-0.00326039,2.85282,0.416171,0.0102659,61,0.0305725,3.55628
2,1,Potentiostatic EIS,8.80157,3.55628,0.000911628,1584.89,0.0247349,4.83162,0.024647,-0.00208336,2.68626,0.408477,0.0101036,48,0.030286,3.55628
2,1,Potentiostatic EIS,8.92599,3.55627,0.000510955,1258.92,0.0248897,2.64058,0.0248633,-0.00114668,2.54179,0.396522,0.00986931,38,0.0301845,3.55627
2,1,Potentiostatic EIS,9.04988,3.5563,0.000739736,999.999,0.0251134,0.771515,0.0251112,-0.000338154,2.36404,0.408404,0.0102564,30,0.03,3.5563
2,1,Potentiostatic EIS,9.1747,3.5563,0.00101994,794.328,0.0253765,-0.81747,0.025374,0.000362049,2.30275,0.399964,0.0101497,24,0.0302142,3.5563
2,1,Potentiostatic EIS,9.29867,3.55631,0.00104059,630.956,0.0256961,-2.18413,0.0256775,0.000979308,2.22923,0.391554,0.0100614,19,0.030113,3.55631
2,1,Potentiostatic EIS,9.42139,3.55631,0.00188134,501.187,0.0260466,-3.39682,0.0260008,0.00154328,2.13841,0.3854,0.0100383,15,0.029929,3.55631
2,1,Potentiostatic EIS,9.50187,3.55631,0.00158259,398.107,0.0264392,-4.51269,0.0263572,0.00208023,2.07118,0.332978,0.00880365,12,0.0301427,3.55631
2,1,Potentiostatic EIS,9.58126,3.55632,0.00169597,316.228,0.0268899,-5.51732,0.0267653,0.00258537,1.87912,0.345252,0.0092838,9,0.0284605,3.55632
2,1,Potentiostatic EIS,9.6639,3.55631,0.00180946,251.189,0.027412,-6.49388,0.0272361,0.00310022,1.68329,0.350079,0.00959635,8,0.0318486,3.55631
2,1,Potentiostatic EIS,9.75448,3.55632,0.0018971,199.526,0.0279967,-7.38457,0.0277645,0.00359837,1.51333,0.349105,0.00977377,8,0.0400951,3.55632
2,1,Potentiostatic EIS,9.85506,3.55631,0.00149292,158.489,0.0286937,-8.19454,0.0284007,0.00408984,1.30002,0.344664,0.00988968,8,0.0504766,3.55631
2,1,Potentiostatic EIS,9.96707,3.55631,0.0014496,125.892,0.0294539,-8.91629,0.029098,0.0045651,1.13374,0.337464,0.00993962,8,0.0635464,3.55631
2,1,Potentiostatic EIS,10.0978,3.55631,0.0015547,100,0.0303333,-9.5014,0.0299172,0.00500717,0.891676,0.328433,0.00996247,8,0.08,3.55631
2,1,Potentiostatic EIS,10.25,3.55632,0.00165412,79.4327,0.0312919,-9.88324,0.0308275,0.00537097,0.758997,0.318579,0.00996893,8,0.100714,3.55632
2,1,Potentiostatic EIS,10.4295,3.55632,0.00157778,63.0956,0.0322974,-10.0747,0.0317993,0.00564983,0.601942,0.308505,0.00996389,8,0.126792,3.55632
2,1,Potentiostatic EIS,10.6446,3.55633,0.0023248,50.1186,0.0333325,-10.1818,0.0328076,0.00589225,0.518485,0.293121,0.00977043,8,0.159621,3.55633
2,1,Potentiostatic EIS,10.9032,3.5563,0.00104491,39.8107,0.0343762,-10.0417,0.0338496,0.00599401,0.409806,0.285151,0.0098024,8,0.200951,3.5563
2,1,Potentiostatic EIS,11.0466,3.55631,-0.000463835,31.6228,0.0353649,-9.91264,0.034837,0.00608795,0.328691,0.280269,0.00991183,2,0.0632456,3.55631
2,1,Potentiostatic EIS,11.2082,3.55632,0.000676719,25.1188,0.03642,-9.51376,0.0359191,0.00601966,0.292742,0.265379,0.00966502,2,0.0796217,3.55632
2,1,Potentiostatic EIS,11.4075,3.55632,0.000865411,19.9526,0.037423,-9.1289,0.036949,0.00593739,0.25941,0.261126,0.00977207,2,0.100238,3.55632
2,1,Potentiostatic EIS,11.6543,3.55632,0.00090489,15.8489,0.0383846,-8.67201,0.0379458,0.00578755,0.239961,0.256229,0.0098352,2,0.126192,3.55632
2,1,Potentiostatic EIS,11.9607,3.55631,0.000683512,12.5892,0.0393128,-8.14225,0.0389165,0.00556792,0.241431,0.25136,0.00988168,2,0.158866,3.55631
2,1,Potentiostatic EIS,12.3421,3.55631,0.000642641,9.99998,0.0401803,-7.5864,0.0398286,0.00530464,0.195152,0.246425,0.00990142,2,0.2,3.55631
2,1,Potentiostatic EIS,12.8172,3.55632,0.000442869,7.94328,0.0409752,-6.96878,0.0406725,0.00497146,0.200313,0.242348,0.00993025,2,0.251785,3.55632
2,1,Potentiostatic EIS,13.4106,3.55631,0.000305621,6.30957,0.0417041,-6.31424,0.0414511,0.00458666,0.192397,0.238112,0.00993021,2,0.316979,3.55631
2,1,Potentiostatic EIS,14.1503,3.55631,0.000364742,5.01186,0.0423118,-5.66508,0.0421052,0.00417674,0.185836,0.235034,0.0099447,2,0.399053,3.55631
2,1,Potentiostatic EIS,15.0774,3.55631,0.000246523,3.98106,0.0428365,-5.05491,0.0426699,0.00377434,0.178527,0.232301,0.00995097,2,0.502378,3.55631
2,1,Potentiostatic EIS,16.2423,3.55632,8.78341e-06,3.16227,0.0432688,-4.52664,0.0431338,0.00341488,0.18397,0.230193,0.00996016,2,0.632458,3.55632
2,1,Potentiostatic EIS,17.7047,3.55632,-1.19653e-05,2.51188,0.0436125,-4.01096,0.0435057,0.00305058,0.175934,0.228351,0.00995898,2,0.796216,3.55632
2,1,Potentiostatic EIS,19.5442,3.55632,-6.80712e-06,1.99526,0.043866,-3.61785,0.0437786,0.00276801,0.200196,0.226846,0.00995082,2,1.00238,3.55632
2,1,Potentiostatic EIS,21.8543,3.55632,-0.000519489,1.58489,0.0440677,-3.3435,0.0439927,0.00257012,0.158562,0.226009,0.00995967,2,1.26192,3.55632
2,1,Potentiostatic EIS,24.7584,3.55632,-0.000306839,1.25892,0.0442809,-3.14875,0.0442141,0.00243228,0.183646,0.22512,0.00996851,2,1.58866,3.55632
2,1,Potentiostatic EIS,28.4097,3.55632,-0.000140294,0.999998,0.0444683,-3.06903,0.0444045,0.00238079,0.170119,0.223955,0.00995888,2,2,3.55632
2,1,Potentiostatic EIS,33.005,3.55632,-0.000951449,0.794327,0.0446503,-3.01853,0.0445883,0.00235124,0.188517,0.223153,0.00996382,2,2.51785,3.55632
2,1,Potentiostatic EIS,38.7842,3.55633,-0.000484943,0.630956,0.0448254,-3.11437,0.0447592,0.00243534,0.170137,0.222303,0.00996483,2,3.16979,3.55633
2,1,Potentiostatic EIS,46.0587,3.55631,-0.000656386,0.501186,0.0450246,-3.27511,0.0449511,0.00257227,0.151043,0.221398,0.00996835,2,3.99054,3.55631
2,1,Potentiostatic EIS,53.3494,3.55631,-0.000731521,0.5,0.0450108,-3.29096,0.0449366,0.00258391,0.162934,0.221415,0.00996607,2,4,3.55631