Folder: feature-extraction-paper-2024/Data/P180/P180_03/EIS_08_P180_03_3

Note: README.md
# feature-extraction-paper-2024
Repository for code used and referenced in 2024 feature extraction paper

File: 2_EIS_08_P180_03_3 20230828 110030.csv
Step number,Repeats,Step name,Elapsed Time  (s),DC Working Electrode (V),DC Current (A),Frequency (Hz),|Z| (Ohms),Phase (deg),Z' (Ohms),-Z" (Ohms),THD (%),Amplitude (A),Amplitude (V),No of Cycles,Duration of Each Frequency (s),IR Compensated DC Working Electrode (V)
2,1,Potentiostatic EIS,0,3.59716,-0.0138307,1000000,2.21285,86.4421,0.137325,-2.20859,1.17162,0.00453956,0.0100454,1430,0.00143,3.59716
2,1,Potentiostatic EIS,0.250277,3.59711,-0.0151947,794328,1.77601,86.1725,0.118555,-1.77205,1.67434,0.00563213,0.0100025,1445,0.00181915,3.59711
2,1,Potentiostatic EIS,0.508632,3.59702,-0.0162329,630957.375,1.41622,85.7851,0.104089,-1.41239,1.3136,0.00703708,0.00996589,1355,0.00214753,3.59702
2,1,Potentiostatic EIS,0.784226,3.59695,-0.0173809,501187.25,1.13247,85.9259,0.080458,-1.12961,1.32385,0.00881138,0.00997869,1385,0.00276344,3.59695
2,1,Potentiostatic EIS,1.06707,3.59689,-0.0187759,398107,0.905289,85.1537,0.0764814,-0.902053,1.5119,0.0109435,0.00990747,1400,0.00351664,3.59689
2,1,Potentiostatic EIS,1.39658,3.59683,-0.0199195,316228,0.722526,84.873,0.0645678,-0.719635,1.58156,0.0137363,0.0099248,1370,0.00433232,3.59683
2,1,Potentiostatic EIS,1.76223,3.59676,-0.0211146,251189,0.581689,84.0789,0.060006,-0.578586,1.68425,0.0171398,0.00997014,1340,0.00533464,3.59676
2,1,Potentiostatic EIS,2.31123,3.59665,-0.0229869,199526,0.464122,83.8032,0.050099,-0.46141,1.89146,0.0213737,0.00992,1355,0.00679109,3.59665
2,1,Potentiostatic EIS,2.77353,3.59654,-0.024639,158489,0.373356,82.7678,0.047002,-0.370386,1.88034,0.0266444,0.00994788,1360,0.00858102,3.59654
2,1,Potentiostatic EIS,3.30718,3.59646,-0.0265173,125893,0.30154,81.8085,0.042964,-0.298463,2.23089,0.0320913,0.00967615,1370,0.0108823,3.59646
2,1,Potentiostatic EIS,3.99124,3.59634,-0.0283125,100000,0.241716,80.8692,0.0383576,-0.238654,1.99184,0.0411529,0.00994738,1370,0.0137,3.59634
2,1,Potentiostatic EIS,4.73204,3.59622,-0.0302608,79432.8,0.195684,79.2295,0.0365685,-0.192237,2.73939,0.0510288,0.00998557,1365,0.0171843,3.59622
2,1,Potentiostatic EIS,5.02279,3.59611,-0.0322274,63095.7,0.157296,77.7116,0.0334778,-0.153692,2.26433,0.063331,0.00996172,1290,0.0204451,3.59611
2,1,Potentiostatic EIS,5.40681,3.59682,-0.0146554,50118.75,0.127816,75.7985,0.0313577,-0.12391,4.72646,0.0779199,0.00995947,1025,0.0204514,3.59682
2,1,Potentiostatic EIS,5.62649,3.59682,-0.014564,39810.7,0.10417,73.5276,0.0295378,-0.0998944,5.36191,0.0963281,0.0100342,815,0.0204719,3.59682
2,1,Potentiostatic EIS,5.85107,3.59682,-0.0148801,31622.8,0.0855611,70.5213,0.0285308,-0.0806641,6.0933,0.117845,0.0100834,645,0.0203967,3.59682
2,1,Potentiostatic EIS,6.07095,3.59715,-0.00594528,25118.9,0.070599,67.4628,0.0270594,-0.0652074,6.71416,0.143744,0.010148,510,0.0203034,3.59715
2,1,Potentiostatic EIS,6.30057,3.5972,-0.00483832,19952.6,0.058146,63.7292,0.0257362,-0.0521402,7.31782,0.173816,0.0101067,405,0.0202981,3.5972
2,1,Potentiostatic EIS,6.52402,3.59725,-0.00409662,15848.9,0.0483553,59.337,0.0246606,-0.0415943,7.21597,0.207595,0.0100383,320,0.0201906,3.59725
2,1,Potentiostatic EIS,6.74606,3.59729,-0.00309456,12589.2,0.0413819,54.2031,0.0242048,-0.0335647,7.1192,0.242186,0.0100223,255,0.0202554,3.59729
2,1,Potentiostatic EIS,7.05206,3.59715,-0.0027474,9999.98,0.035871,48.7735,0.0236403,-0.0269789,3.22775,0.278015,0.00997268,307,0.0307001,3.59715
2,1,Potentiostatic EIS,7.26526,3.59718,-0.00214766,7943.27,0.0317096,43.3947,0.0230414,-0.0217852,3.92727,0.282236,0.00894959,244,0.0307178,3.59718
2,1,Potentiostatic EIS,7.48031,3.59718,-0.00225763,6309.57,0.0277912,37.5409,0.0220362,-0.016934,4.3043,0.365352,0.0101536,193,0.0305885,3.59718
2,1,Potentiostatic EIS,7.69374,3.5972,-0.00202681,5011.87,0.0257277,29.7174,0.022344,-0.0127538,4.30147,0.406267,0.0104523,153,0.0305276,3.5972
2,1,Potentiostatic EIS,7.90765,3.59724,-0.00100338,3981.07,0.0246289,23.632,0.0225635,-0.00987276,4.0928,0.416948,0.010269,122,0.0306451,3.59724
2,1,Potentiostatic EIS,8.07572,3.59728,-0.000235089,3162.27,0.0238826,18.4726,0.0226521,-0.00756725,3.90997,0.364118,0.00869609,97,0.0306742,3.59728
2,1,Potentiostatic EIS,8.24436,3.59727,-0.000252864,2511.88,0.0234489,14.0617,0.0227462,-0.00569729,3.48433,0.448559,0.0105182,77,0.0306543,3.59727
2,1,Potentiostatic EIS,8.41678,3.59728,4.64415e-05,1995.26,0.0232387,10.2447,0.0228683,-0.00413305,3.04485,0.443815,0.0103137,61,0.0305725,3.59728
2,1,Potentiostatic EIS,8.585,3.59728,0.000143098,1584.89,0.0231769,7.04034,0.0230021,-0.00284075,2.90649,0.437456,0.0101389,48,0.030286,3.59728
2,1,Potentiostatic EIS,8.71165,3.59729,0.000400963,1258.92,0.0232173,4.39501,0.023149,-0.00177919,2.67198,0.400368,0.00929544,38,0.0301845,3.59729
2,1,Potentiostatic EIS,8.83719,3.59731,0.000573172,999.999,0.0233631,2.11106,0.0233473,-0.000860618,2.39456,0.441082,0.010305,30,0.03,3.59731
2,1,Potentiostatic EIS,8.96455,3.59731,0.000739751,794.328,0.0235646,0.169996,0.0235645,-6.99158e-05,2.31796,0.431768,0.0101744,24,0.0302142,3.59731
2,1,Potentiostatic EIS,9.08819,3.59732,0.000569506,630.956,0.023842,-1.53722,0.0238334,0.000639592,2.2098,0.423397,0.0100946,19,0.030113,3.59732
2,1,Potentiostatic EIS,9.21434,3.59732,0.000670106,501.187,0.0241651,-3.05697,0.0241307,0.0012887,2.12914,0.415877,0.0100497,15,0.029929,3.59732
2,1,Potentiostatic EIS,9.29446,3.59733,0.00110613,398.107,0.0245515,-4.44565,0.0244776,0.00190307,2.09856,0.353827,0.00868699,12,0.0301427,3.59733
2,1,Potentiostatic EIS,9.37389,3.59733,0.00129155,316.228,0.0250098,-5.71526,0.0248854,0.00249059,1.90393,0.368633,0.00921943,9,0.0284605,3.59733
2,1,Potentiostatic EIS,9.45475,3.59734,0.00119444,251.189,0.025566,-6.86323,0.0253828,0.00305513,1.74373,0.374179,0.00956626,8,0.0318486,3.59734
2,1,Potentiostatic EIS,9.5456,3.59734,0.00135293,199.526,0.0262044,-7.90864,0.0259552,0.00360557,1.55391,0.372881,0.00977113,8,0.0400951,3.59734
2,1,Potentiostatic EIS,9.64591,3.59735,0.00136305,158.489,0.0269497,-8.77175,0.0266345,0.00410978,1.34882,0.36702,0.00989106,8,0.0504766,3.59735
2,1,Potentiostatic EIS,9.75952,3.59734,0.00146682,125.892,0.0277935,-9.48905,0.0274132,0.00458201,1.16257,0.357863,0.00994625,8,0.0635464,3.59734
2,1,Potentiostatic EIS,9.88807,3.59734,0.00115265,100,0.0287231,-10.0082,0.028286,0.00499177,0.961316,0.347026,0.00996765,8,0.08,3.59734
2,1,Potentiostatic EIS,10.0399,3.59734,0.00123637,79.4327,0.0296964,-10.2535,0.0292222,0.00528605,0.804857,0.335628,0.00996693,8,0.100714,3.59734
2,1,Potentiostatic EIS,10.2201,3.59734,0.000990463,63.0956,0.030722,-10.2775,0.030229,0.00548129,0.667531,0.324391,0.00996592,8,0.126792,3.59734
2,1,Potentiostatic EIS,10.4356,3.59735,0.00188751,50.1186,0.031737,-10.1934,0.0312361,0.00561653,0.554953,0.308398,0.00978765,8,0.159621,3.59735
2,1,Potentiostatic EIS,10.6943,3.59733,0.000819916,39.8107,0.0327179,-9.87272,0.0322333,0.00560981,0.449326,0.299778,0.00980811,8,0.200951,3.59733
2,1,Potentiostatic EIS,10.8384,3.59734,-0.00069517,31.6228,0.0336357,-9.5394,0.0331706,0.00557431,0.351046,0.294694,0.00991234,2,0.0632456,3.59734
2,1,Potentiostatic EIS,11.0001,3.59733,0.000317066,25.1188,0.0345839,-8.94431,0.0341633,0.00537691,0.306619,0.279351,0.00966087,2,0.0796217,3.59733
2,1,Potentiostatic EIS,11.1992,3.59733,0.000486588,19.9526,0.0354507,-8.39848,0.0350706,0.00517782,0.279803,0.275389,0.0097627,2,0.100238,3.59733
2,1,Potentiostatic EIS,11.4463,3.59734,0.000722918,15.8489,0.0362581,-7.80393,0.0359223,0.00492325,0.271076,0.27114,0.00983101,2,0.126192,3.59734
2,1,Potentiostatic EIS,11.7529,3.59733,0.000659403,12.5892,0.037003,-7.15489,0.0367148,0.00460879,0.238689,0.266943,0.00987769,2,0.158866,3.59733
2,1,Potentiostatic EIS,12.1344,3.59734,0.000315957,9.99998,0.0376643,-6.53731,0.0374194,0.00428809,0.226303,0.262802,0.00989822,2,0.2,3.59734
2,1,Potentiostatic EIS,12.6092,3.59735,0.000311965,7.94328,0.0382445,-5.90432,0.0380417,0.00393412,0.20622,0.25951,0.00992486,2,0.251785,3.59735
2,1,Potentiostatic EIS,13.2021,3.59734,-5.97e-05,6.30957,0.038773,-5.28113,0.0386084,0.00356877,0.176699,0.256203,0.00993372,2,0.316979,3.59734
2,1,Potentiostatic EIS,13.9425,3.59734,0.000245937,5.01186,0.0391882,-4.69409,0.0390567,0.00320699,0.203164,0.253737,0.00994351,2,0.399053,3.59734
2,1,Potentiostatic EIS,14.8695,3.59734,0.000158139,3.98106,0.0395294,-4.18558,0.039424,0.00288514,0.202443,0.251731,0.00995073,2,0.502378,3.59734
2,1,Potentiostatic EIS,16.0348,3.59733,-0.000324951,3.16227,0.0398372,-3.74676,0.039752,0.00260323,0.164166,0.249715,0.00994793,2,0.632458,3.59733
2,1,Potentiostatic EIS,17.4975,3.59734,-4.23427e-05,2.51188,0.0400855,-3.39174,0.0400153,0.00237156,0.185583,0.248409,0.0099576,2,0.796216,3.59734
2,1,Potentiostatic EIS,19.3366,3.59733,-0.000140707,1.99526,0.0402732,-3.12449,0.0402133,0.00219511,0.2114,0.247206,0.00995575,2,1.00238,3.59733
2,1,Potentiostatic EIS,21.6462,3.59733,-0.000627723,1.58489,0.0404542,-2.9186,0.0404017,0.00205981,0.174893,0.246189,0.00995937,2,1.26192,3.59733
2,1,Potentiostatic EIS,24.5512,3.59733,-0.000503407,1.25892,0.040616,-2.81207,0.0405671,0.00199263,0.180626,0.245443,0.00996893,2,1.58866,3.59733
2,1,Potentiostatic EIS,28.2028,3.59734,-0.000503831,0.999998,0.0407312,-2.80442,0.0406824,0.00199285,0.200338,0.244449,0.00995665,2,2,3.59734
2,1,Potentiostatic EIS,32.7971,3.59734,-0.00122832,0.794327,0.0408798,-2.85042,0.0408292,0.0020329,0.18376,0.243544,0.00995602,2,2.51785,3.59734
2,1,Potentiostatic EIS,38.5765,3.59733,-0.000479665,0.630956,0.0410408,-2.96726,0.0409858,0.00212449,0.191458,0.242592,0.00995618,2,3.16979,3.59733
2,1,Potentiostatic EIS,45.8514,3.59734,-0.000203097,0.501186,0.0412285,-3.17797,0.0411651,0.00228561,0.143747,0.24154,0.00995833,2,3.99054,3.59734
2,1,Potentiostatic EIS,53.141,3.59734,-0.000273279,0.5,0.0412221,-3.20081,0.0411578,0.00230166,0.153239,0.241523,0.0099561,2,4,3.59734