Folder: feature-extraction-paper-2024/Data/P180/P180_03/EIS_06_P180_03_4

Note: README.md
# feature-extraction-paper-2024
Repository for code used and referenced in 2024 feature extraction paper

File: 2_EIS_06_P180_03_4 20230824 142619.csv
Step number,Repeats,Step name,Elapsed Time  (s),DC Working Electrode (V),DC Current (A),Frequency (Hz),|Z| (Ohms),Phase (deg),Z' (Ohms),-Z" (Ohms),THD (%),Amplitude (A),Amplitude (V),No of Cycles,Duration of Each Frequency (s),IR Compensated DC Working Electrode (V)
2,1,Potentiostatic EIS,0,3.54227,-0.0107478,1000000,1.77299,86.6262,0.104342,-1.76992,1.24207,0.0056672,0.0100478,1430,0.00143,3.54227
2,1,Potentiostatic EIS,0.250167,3.54216,-0.012754,794328,1.42604,86.1011,0.0969647,-1.42274,1.24894,0.00703631,0.0100341,1445,0.00181915,3.54216
2,1,Potentiostatic EIS,0.509527,3.54209,-0.0139383,630957.375,1.14027,85.5645,0.0881842,-1.13685,1.15233,0.00874213,0.00996843,1355,0.00214753,3.54209
2,1,Potentiostatic EIS,0.784134,3.54203,-0.0152223,501187.25,0.914176,85.3965,0.0733724,-0.911227,1.20955,0.0107432,0.00982116,1385,0.00276344,3.54203
2,1,Potentiostatic EIS,1.08902,3.54194,-0.0164113,398107,0.733369,84.5375,0.069812,-0.730038,1.5166,0.0135883,0.00996528,1400,0.00351664,3.54194
2,1,Potentiostatic EIS,1.41752,3.54187,-0.0174067,316228,0.585734,83.8854,0.0623912,-0.582401,1.41715,0.0169476,0.00992677,1370,0.00433232,3.54187
2,1,Potentiostatic EIS,1.77842,3.54183,-0.0184984,251189,0.471964,82.8556,0.0586983,-0.468299,1.86076,0.021151,0.00998252,1340,0.00533464,3.54183
2,1,Potentiostatic EIS,2.28327,3.54172,-0.0201251,199526,0.377779,82.4437,0.0496782,-0.374498,1.6629,0.0262956,0.00993394,1355,0.00679109,3.54172
2,1,Potentiostatic EIS,2.78865,3.54161,-0.0219051,158489,0.304577,81.1019,0.0471112,-0.300912,1.81444,0.0327129,0.00996369,1360,0.00858102,3.54161
2,1,Potentiostatic EIS,3.36654,3.54154,-0.0232178,125893,0.24663,79.7984,0.0436814,-0.242731,1.92474,0.0404961,0.00998756,1370,0.0108823,3.54154
2,1,Potentiostatic EIS,4.03877,3.54139,-0.0256594,100000,0.198538,78.4653,0.0397,-0.194528,2.00196,0.0502143,0.00996948,1370,0.0137,3.54139
2,1,Potentiostatic EIS,4.95374,3.54132,-0.025881,79432.8,0.160982,76.4679,0.0376682,-0.156513,2.88083,0.0620257,0.00998504,1365,0.0171843,3.54132
2,1,Potentiostatic EIS,5.33563,3.54189,-0.0127961,63095.7,0.130603,74.3958,0.0351309,-0.12579,4.09139,0.0763936,0.00997727,1290,0.0204451,3.54189
2,1,Potentiostatic EIS,5.56611,3.5419,-0.0128074,50118.75,0.106669,71.6057,0.0336597,-0.101219,4.87645,0.0942963,0.0100586,1025,0.0204514,3.5419
2,1,Potentiostatic EIS,5.79664,3.54189,-0.0127092,39810.7,0.0877905,68.7057,0.0318819,-0.0817968,5.47535,0.114638,0.0100643,815,0.0204719,3.54189
2,1,Potentiostatic EIS,6.02958,3.54189,-0.0126466,31622.8,0.0729308,65.0097,0.0308107,-0.066103,5.97923,0.138684,0.0101143,645,0.0203967,3.54189
2,1,Potentiostatic EIS,6.26231,3.54224,-0.00498939,25118.9,0.0609954,60.9734,0.0295959,-0.053334,6.36016,0.166264,0.0101417,510,0.0203034,3.54224
2,1,Potentiostatic EIS,6.48999,3.54229,-0.00360937,19952.6,0.0513837,56.3213,0.0284941,-0.0427595,6.44519,0.197432,0.010145,405,0.0202981,3.54229
2,1,Potentiostatic EIS,6.71082,3.5423,-0.00331048,15848.9,0.0438242,51.1168,0.02751,-0.034114,6.53876,0.22926,0.0100473,320,0.0201906,3.5423
2,1,Potentiostatic EIS,6.93651,3.54234,-0.00268438,12589.2,0.038577,45.3937,0.02709,-0.0274649,6.41544,0.260025,0.0100311,255,0.0202554,3.54234
2,1,Potentiostatic EIS,7.24221,3.54238,-0.00190387,9999.98,0.0345867,39.6714,0.026622,-0.0220796,2.81331,0.288474,0.00997737,307,0.0307001,3.54238
2,1,Potentiostatic EIS,7.45452,3.54244,-0.00134563,7943.27,0.0315764,34.3788,0.0260607,-0.01783,3.38015,0.28829,0.00910315,244,0.0307178,3.54244
2,1,Potentiostatic EIS,7.66589,3.54243,-0.0015206,6309.57,0.0285872,28.5879,0.025102,-0.0136792,3.65812,0.372446,0.0106472,193,0.0305885,3.54243
2,1,Potentiostatic EIS,7.87758,3.54244,-0.0011598,5011.87,0.0274411,21.5598,0.0255211,-0.0100838,3.68493,0.379036,0.0104012,153,0.0305276,3.54244
2,1,Potentiostatic EIS,8.09013,3.54247,-0.0007198,3981.07,0.0269134,16.5339,0.0258006,-0.00765906,3.4995,0.378618,0.0101899,122,0.0306451,3.54247
2,1,Potentiostatic EIS,8.25866,3.54248,-0.000217114,3162.27,0.0265732,12.4696,0.0259464,-0.00573772,3.32543,0.369678,0.00982354,97,0.0306742,3.54248
2,1,Potentiostatic EIS,8.42744,3.54245,-0.000894659,2511.88,0.0264413,9.07956,0.02611,-0.00417259,3.07142,0.393678,0.0104094,77,0.0306543,3.54245
2,1,Potentiostatic EIS,8.59634,3.5425,0.000100232,1995.26,0.0264577,6.13183,0.0263064,-0.00282612,2.81148,0.386215,0.0102184,61,0.0305725,3.5425
2,1,Potentiostatic EIS,8.72046,3.5425,5.61281e-05,1584.89,0.0265639,3.7586,0.0265068,-0.00174134,2.65729,0.340516,0.00904544,48,0.030286,3.5425
2,1,Potentiostatic EIS,8.84547,3.54249,8.94045e-05,1258.92,0.0267499,1.82326,0.0267363,-0.000851089,2.46256,0.388726,0.0103984,38,0.0301845,3.54249
2,1,Potentiostatic EIS,8.96903,3.54251,-7.57677e-06,999.999,0.0269817,0.2306,0.0269815,-0.000108594,2.37055,0.378955,0.0102248,30,0.03,3.54251
2,1,Potentiostatic EIS,9.09343,3.54251,0.000105128,794.328,0.0272919,-1.10731,0.0272868,0.000527418,2.30197,0.371002,0.0101254,24,0.0302142,3.54251
2,1,Potentiostatic EIS,9.21739,3.54251,3.23259e-05,630.956,0.0276087,-2.30311,0.0275864,0.00110948,2.2124,0.364685,0.0100685,19,0.030113,3.54251
2,1,Potentiostatic EIS,9.34426,3.54253,0.000908231,501.187,0.0279483,-3.38519,0.0278996,0.0016503,2.10793,0.3594,0.0100446,15,0.029929,3.54253
2,1,Potentiostatic EIS,9.42477,3.54253,0.00081441,398.107,0.0283628,-4.27761,0.0282838,0.00211555,2.01721,0.313969,0.00890504,12,0.0301427,3.54253
2,1,Potentiostatic EIS,9.50433,3.54254,0.00100352,316.228,0.0287886,-5.16598,0.0286717,0.00259216,1.83037,0.324419,0.00933958,9,0.0284605,3.54254
2,1,Potentiostatic EIS,9.58531,3.54252,0.000799389,251.189,0.0293072,-6.01622,0.0291457,0.00307168,1.63684,0.328135,0.00961671,8,0.0318486,3.54252
2,1,Potentiostatic EIS,9.67413,3.54252,0.000943103,199.526,0.029895,-6.77315,0.0296864,0.00352578,1.46179,0.327208,0.00978188,8,0.0400951,3.54252
2,1,Potentiostatic EIS,9.77326,3.54253,0.00105044,158.489,0.0305617,-7.41669,0.030306,0.00394504,1.20874,0.323311,0.00988092,8,0.0504766,3.54253
2,1,Potentiostatic EIS,9.8863,3.54251,0.000792737,125.892,0.0313094,-8.0349,0.031002,0.00437631,1.04503,0.31725,0.00993291,8,0.0635464,3.54251
2,1,Potentiostatic EIS,10.0159,3.54252,0.000709142,100,0.0321369,-8.54742,0.0317799,0.00477644,0.849962,0.309699,0.00995277,8,0.08,3.54252
2,1,Potentiostatic EIS,10.1672,3.54253,0.000703688,79.4327,0.0330309,-8.8482,0.0326378,0.00508072,0.678096,0.301343,0.00995363,8,0.100714,3.54253
2,1,Potentiostatic EIS,10.3465,3.54253,0.000741438,63.0956,0.0339882,-8.99319,0.0335704,0.00531294,0.568978,0.292921,0.00995587,8,0.126792,3.54253
2,1,Potentiostatic EIS,10.5596,3.54253,0.00128234,50.1186,0.0349545,-9.07047,0.0345174,0.00551054,0.461995,0.279168,0.00975817,8,0.159621,3.54253
2,1,Potentiostatic EIS,10.8191,3.54252,0.000339461,39.8107,0.0359127,-8.91131,0.0354792,0.00556307,0.367721,0.272564,0.00978851,8,0.200951,3.54252
2,1,Potentiostatic EIS,10.9635,3.54252,-0.00118626,31.6228,0.0368426,-8.76307,0.0364126,0.00561293,0.322837,0.268863,0.00990573,2,0.0632456,3.54252
2,1,Potentiostatic EIS,11.1251,3.54251,-4.79836e-05,25.1188,0.0378109,-8.32885,0.0374121,0.00547707,0.271606,0.255479,0.00965978,2,0.0796217,3.54251
2,1,Potentiostatic EIS,11.3243,3.54252,7.28455e-05,19.9526,0.0387169,-7.97616,0.0383424,0.0053724,0.233384,0.252312,0.0097686,2,0.100238,3.54252
2,1,Potentiostatic EIS,11.5714,3.54253,0.000346659,15.8489,0.0395749,-7.53281,0.0392334,0.00518803,0.21937,0.248441,0.00983203,2,0.126192,3.54253
2,1,Potentiostatic EIS,11.878,3.54253,0.000200562,12.5892,0.0403697,-7.03889,0.0400654,0.00494702,0.190808,0.244591,0.00987409,2,0.158866,3.54253
2,1,Potentiostatic EIS,12.2593,3.54252,-4.46475e-05,9.99998,0.0411357,-6.55087,0.0408671,0.00469298,0.215351,0.240764,0.00990401,2,0.2,3.54252
2,1,Potentiostatic EIS,12.734,3.54252,-0.000153355,7.94328,0.0418197,-6.01657,0.0415893,0.00438338,0.179687,0.237281,0.009923,2,0.251785,3.54252
2,1,Potentiostatic EIS,13.3277,3.54252,-0.000303042,6.30957,0.0424203,-5.4574,0.042228,0.00403441,0.177834,0.234169,0.00993352,2,0.316979,3.54252
2,1,Potentiostatic EIS,14.0689,3.54252,-0.000205897,5.01186,0.0429484,-4.90338,0.0427912,0.00367104,0.187417,0.231568,0.00994548,2,0.399053,3.54252
2,1,Potentiostatic EIS,14.9963,3.54252,-0.000352597,3.98106,0.0434062,-4.4266,0.0432768,0.00335017,0.182772,0.229221,0.00994962,2,0.502378,3.54252
2,1,Potentiostatic EIS,16.1612,3.54252,-0.000714761,3.16227,0.0437912,-3.96024,0.0436866,0.0030244,0.176087,0.227226,0.0099505,2,0.632458,3.54252
2,1,Potentiostatic EIS,17.623,3.54253,-0.000499294,2.51188,0.0440989,-3.5863,0.0440125,0.00275847,0.18476,0.225925,0.00996305,2,0.796216,3.54253
2,1,Potentiostatic EIS,19.4617,3.54252,-0.000559704,1.99526,0.044357,-3.27474,0.0442845,0.00253384,0.154246,0.224435,0.00995525,2,1.00238,3.54252
2,1,Potentiostatic EIS,21.7713,3.54252,-0.00094657,1.58489,0.0445594,-3.04308,0.0444966,0.00236552,0.180878,0.223511,0.00995952,2,1.26192,3.54252
2,1,Potentiostatic EIS,24.6761,3.54252,-0.000785964,1.25892,0.0447581,-2.89421,0.044701,0.00225993,0.166236,0.222584,0.00996245,2,1.58866,3.54252
2,1,Potentiostatic EIS,28.3275,3.54252,-0.000647614,0.999998,0.0449174,-2.85896,0.0448615,0.00224037,0.172984,0.221865,0.00996561,2,2,3.54252
2,1,Potentiostatic EIS,32.9224,3.54253,-0.001275,0.794327,0.0450802,-2.86826,0.0450238,0.0022558,0.171978,0.220992,0.00996236,2,2.51785,3.54253
2,1,Potentiostatic EIS,38.7016,3.54252,-0.000802614,0.630956,0.0452579,-2.95976,0.0451975,0.00233688,0.160275,0.220205,0.00996599,2,3.16979,3.54252
2,1,Potentiostatic EIS,45.9762,3.54252,-0.000812069,0.501186,0.0454247,-3.15089,0.045356,0.0024968,0.137865,0.219386,0.00996555,2,3.99054,3.54252
2,1,Potentiostatic EIS,53.2659,3.54253,-0.000846488,0.5,0.0454056,-3.16211,0.0453365,0.00250463,0.142124,0.219432,0.00996343,2,4,3.54253