Folder: feature-extraction-paper-2024/Data/P180/P180_03/EIS_02_P180_03_2

Note: README.md
# feature-extraction-paper-2024
Repository for code used and referenced in 2024 feature extraction paper

File: 2_EIS_02_P180_03_2 20230821 142641.csv
Step number,Repeats,Step name,Elapsed Time  (s),DC Working Electrode (V),DC Current (A),Frequency (Hz),|Z| (Ohms),Phase (deg),Z' (Ohms),-Z" (Ohms),THD (%),Amplitude (A),Amplitude (V),No of Cycles,Duration of Each Frequency (s),IR Compensated DC Working Electrode (V)
2,1,Potentiostatic EIS,0,3.73533,-0.0112854,1000000,2.28871,87.4368,0.102354,-2.28642,0.91512,0.00432962,0.00990921,1430,0.00143,3.73533
2,1,Potentiostatic EIS,0.250606,3.73526,-0.0125033,794328,1.8348,86.9192,0.0986096,-1.83215,1.05029,0.00542632,0.00995623,1445,0.00181915,3.73526
2,1,Potentiostatic EIS,0.513595,3.73523,-0.0131586,630957.375,1.46739,86.3986,0.0921746,-1.46449,0.952542,0.0067782,0.00994635,1355,0.00214753,3.73523
2,1,Potentiostatic EIS,0.79007,3.73516,-0.0140158,501187.25,1.17396,86.3684,0.0743589,-1.1716,1.03619,0.00847558,0.00994993,1385,0.00276344,3.73516
2,1,Potentiostatic EIS,1.07379,3.73511,-0.0149932,398107,0.939476,85.4513,0.074506,-0.936517,1.05496,0.0105991,0.00995759,1400,0.00351664,3.73511
2,1,Potentiostatic EIS,1.51107,3.73506,-0.0153396,316228,0.748982,85.0485,0.0646469,-0.746187,1.22019,0.012905,0.00966481,1370,0.00433232,3.73506
2,1,Potentiostatic EIS,1.87116,3.73497,-0.0166163,251189,0.602353,84.1702,0.0611835,-0.599237,1.30279,0.0165669,0.00997914,1340,0.00533464,3.73497
2,1,Potentiostatic EIS,2.28039,3.7349,-0.0178488,199526,0.480814,83.7807,0.0520886,-0.477984,1.38403,0.0206503,0.00992896,1355,0.00679109,3.7349
2,1,Potentiostatic EIS,2.94233,3.73484,-0.0184682,158489,0.386992,82.5657,0.0500729,-0.383739,1.59189,0.0257028,0.00994677,1360,0.00858102,3.73484
2,1,Potentiostatic EIS,3.47323,3.73474,-0.0199826,125893,0.31202,81.6097,0.0455287,-0.30868,1.60031,0.031228,0.00974357,1370,0.0108823,3.73474
2,1,Potentiostatic EIS,4.14292,3.73464,-0.0216032,100000,0.250468,80.2593,0.0423765,-0.246857,1.8525,0.0397938,0.00996709,1370,0.0137,3.73464
2,1,Potentiostatic EIS,4.87826,3.73456,-0.0225827,79432.8,0.202262,78.6409,0.0398369,-0.1983,2.49968,0.0494446,0.0100008,1365,0.0171843,3.73456
2,1,Potentiostatic EIS,5.21652,3.73442,-0.0252848,63095.7,0.163227,76.895,0.0370095,-0.158976,1.95078,0.0610396,0.00996332,1290,0.0204451,3.73442
2,1,Potentiostatic EIS,5.60865,3.73503,-0.0129852,50118.75,0.13247,74.514,0.0353699,-0.127661,4.43099,0.0752557,0.00996913,1025,0.0204514,3.73503
2,1,Potentiostatic EIS,5.83588,3.73501,-0.013336,39810.7,0.108109,71.8362,0.0337014,-0.102722,5.06317,0.0926728,0.0100188,815,0.0204719,3.73501
2,1,Potentiostatic EIS,6.05665,3.73506,-0.0130042,31622.8,0.088933,68.4842,0.0326168,-0.0827358,5.87055,0.113464,0.0100909,645,0.0203967,3.73506
2,1,Potentiostatic EIS,6.27664,3.73539,-0.00635409,25118.9,0.0736565,64.8675,0.0312829,-0.0666833,6.34686,0.137433,0.0101228,510,0.0203034,3.73539
2,1,Potentiostatic EIS,6.50299,3.73541,-0.00618445,19952.6,0.0613388,60.2071,0.0304772,-0.0532315,6.74447,0.164719,0.0101037,405,0.0202981,3.73541
2,1,Potentiostatic EIS,6.7374,3.73544,-0.00556745,15848.9,0.0515774,55.1847,0.0294473,-0.0423449,6.89704,0.194301,0.0100215,320,0.0201906,3.73544
2,1,Potentiostatic EIS,6.96031,3.73546,-0.00469671,12589.2,0.0446671,49.6315,0.0289309,-0.0340317,6.77591,0.223871,0.00999971,255,0.0202554,3.73546
2,1,Potentiostatic EIS,7.26577,3.7355,-0.00450335,9999.98,0.0394212,43.8054,0.0284501,-0.0272878,3.06311,0.25335,0.00998738,307,0.0307001,3.7355
2,1,Potentiostatic EIS,7.47784,3.73552,-0.00435116,7943.27,0.0355217,38.2397,0.0278997,-0.0219863,3.63109,0.283093,0.010056,244,0.0307178,3.73552
2,1,Potentiostatic EIS,7.69325,3.73554,-0.00401743,6309.57,0.031796,32.1249,0.0269277,-0.016908,4.01825,0.331905,0.0105533,193,0.0305885,3.73554
2,1,Potentiostatic EIS,7.90627,3.73557,-0.00360963,5011.87,0.0301404,24.8374,0.0273526,-0.0126603,4.01715,0.343032,0.0103391,153,0.0305276,3.73557
2,1,Potentiostatic EIS,8.11921,3.73558,-0.00326028,3981.07,0.0292615,19.3332,0.0276115,-0.00968734,3.83179,0.346558,0.0101408,122,0.0306451,3.73558
2,1,Potentiostatic EIS,8.28753,3.73561,-0.00279481,3162.27,0.028739,14.7527,0.0277916,-0.00731832,3.52665,0.362315,0.0104126,97,0.0306742,3.73561
2,1,Potentiostatic EIS,8.45643,3.73562,-0.00241707,2511.88,0.0284647,10.8801,0.027953,-0.00537282,3.23107,0.364436,0.0103735,77,0.0306543,3.73562
2,1,Potentiostatic EIS,8.62497,3.73562,-0.00265321,1995.26,0.0284012,7.61806,0.0281506,-0.00376512,2.96956,0.358585,0.0101842,61,0.0305725,3.73562
2,1,Potentiostatic EIS,8.75011,3.73563,-0.00237276,1584.89,0.0284703,4.88876,0.0283668,-0.00242629,2.82657,0.331415,0.00943549,48,0.030286,3.73563
2,1,Potentiostatic EIS,8.87541,3.73564,-0.00202595,1258.92,0.0286295,2.71631,0.0285973,-0.00135677,2.55247,0.362072,0.0103659,38,0.0301845,3.73564
2,1,Potentiostatic EIS,8.99935,3.73564,-0.0022774,999.999,0.0289837,0.85106,0.0289805,-0.000430502,2.4376,0.353025,0.010232,30,0.03,3.73564
2,1,Potentiostatic EIS,9.12316,3.73565,-0.00191151,794.328,0.0293626,-0.707334,0.0293604,0.000362481,2.35564,0.344362,0.0101114,24,0.0302142,3.73565
2,1,Potentiostatic EIS,9.24828,3.73564,-0.00207409,630.956,0.0296113,-2.06814,0.029592,0.00106861,2.26906,0.339608,0.0100562,19,0.030113,3.73564
2,1,Potentiostatic EIS,9.37228,3.73566,-0.00119202,501.187,0.029929,-3.23762,0.0298812,0.0016903,2.15061,0.335327,0.010036,15,0.029929,3.73566
2,1,Potentiostatic EIS,9.45244,3.73566,-0.00157821,398.107,0.03035,-4.34118,0.030263,0.00229736,2.03875,0.296488,0.00899842,12,0.0301427,3.73566
2,1,Potentiostatic EIS,9.53127,3.73566,-0.00147753,316.228,0.0307893,-5.40994,0.0306522,0.00290285,1.81528,0.305431,0.009404,9,0.0284605,3.73566
2,1,Potentiostatic EIS,9.61349,3.73567,-0.00128489,251.189,0.0313405,-6.43444,0.0311431,0.00351222,1.64468,0.30837,0.00966447,8,0.0318486,3.73567
2,1,Potentiostatic EIS,9.70323,3.73568,-0.00114718,199.526,0.0319743,-7.39996,0.031708,0.00411813,1.43672,0.307164,0.00982136,8,0.0400951,3.73568
2,1,Potentiostatic EIS,9.80293,3.73566,-0.00132063,158.489,0.0327153,-8.35087,0.0323685,0.0047514,1.1828,0.303106,0.00991623,8,0.0504766,3.73566
2,1,Potentiostatic EIS,9.91527,3.73566,-0.00149217,125.892,0.0335617,-9.26138,0.0331242,0.00540137,1.04653,0.296676,0.00995696,8,0.0635464,3.73566
2,1,Potentiostatic EIS,10.0448,3.73565,-0.00154134,100,0.0345927,-10.094,0.0340573,0.00606282,0.838294,0.288537,0.00998128,8,0.08,3.73565
2,1,Potentiostatic EIS,10.1966,3.73566,-0.00149475,79.4327,0.0357367,-10.7028,0.035115,0.00663683,0.65727,0.279399,0.0099848,8,0.100714,3.73566
2,1,Potentiostatic EIS,10.3755,3.73567,-0.00151558,63.0956,0.0370155,-11.1092,0.0363219,0.00713213,0.568112,0.269634,0.00998064,8,0.126792,3.73567
2,1,Potentiostatic EIS,10.5902,3.73567,-0.000865141,50.1186,0.0383601,-11.4259,0.0375999,0.00759915,0.47575,0.256323,0.00983258,8,0.159621,3.73567
2,1,Potentiostatic EIS,10.849,3.73565,-0.00186464,39.8107,0.0397746,-11.3664,0.0389945,0.00783884,0.369749,0.247778,0.00985526,8,0.200951,3.73565
2,1,Potentiostatic EIS,10.9919,3.73565,-0.00333195,31.6228,0.0411207,-11.2684,0.040328,0.00803519,0.314893,0.241475,0.00992972,2,0.0632456,3.73565
2,1,Potentiostatic EIS,11.1549,3.73566,-0.00214697,25.1188,0.0425509,-10.8525,0.0417899,0.00801153,0.25009,0.227609,0.00968483,2,0.0796217,3.73566
2,1,Potentiostatic EIS,11.355,3.73566,-0.00204912,19.9526,0.043856,-10.4671,0.0431262,0.00796733,0.222572,0.223167,0.00978716,2,0.100238,3.73566
2,1,Potentiostatic EIS,11.6023,3.73567,-0.00197999,15.8489,0.0451561,-9.99416,0.0444709,0.00783675,0.219747,0.218133,0.00984997,2,0.126192,3.73567
2,1,Potentiostatic EIS,11.9088,3.73566,-0.00225016,12.5892,0.0464357,-9.48217,0.0458013,0.00764986,0.218221,0.213008,0.00989111,2,0.158866,3.73566
2,1,Potentiostatic EIS,12.2897,3.73566,-0.0022258,9.99998,0.0475976,-8.92541,0.0470212,0.0073847,0.215548,0.208297,0.00991442,2,0.2,3.73566
2,1,Potentiostatic EIS,12.7647,3.73568,-0.00212859,7.94328,0.048767,-8.28559,0.048258,0.00702769,0.186699,0.203803,0.00993889,2,0.251785,3.73568
2,1,Potentiostatic EIS,13.358,3.73566,-0.00247071,6.30957,0.0498249,-7.58368,0.0493891,0.00657559,0.185354,0.19959,0.00994457,2,0.316979,3.73566
2,1,Potentiostatic EIS,14.0983,3.73566,-0.00235637,5.01186,0.0507783,-6.85839,0.050415,0.00606373,0.189641,0.196132,0.00995926,2,0.399053,3.73566
2,1,Potentiostatic EIS,15.0255,3.73565,-0.00236051,3.98106,0.0516028,-6.12019,0.0513087,0.0055016,0.164319,0.193021,0.00996041,2,0.502378,3.73565
2,1,Potentiostatic EIS,16.1906,3.73566,-0.00247643,3.16227,0.0522877,-5.4295,0.0520531,0.00494751,0.167924,0.190642,0.00996823,2,0.632458,3.73566
2,1,Potentiostatic EIS,17.6538,3.73567,-0.00236906,2.51188,0.052849,-4.78044,0.0526651,0.00440431,0.17218,0.188639,0.00996937,2,0.796216,3.73567
2,1,Potentiostatic EIS,19.493,3.73567,-0.00217272,1.99526,0.0533024,-4.20589,0.0531588,0.00390923,0.155406,0.186964,0.00996561,2,1.00238,3.73567
2,1,Potentiostatic EIS,21.8034,3.73567,-0.00240342,1.58489,0.05365,-3.72554,0.0535366,0.00348603,0.176025,0.185846,0.00997065,2,1.26192,3.73567
2,1,Potentiostatic EIS,24.7082,3.73567,-0.0023384,1.25892,0.0539507,-3.36835,0.0538575,0.00316987,0.16005,0.184828,0.00997159,2,1.58866,3.73567
2,1,Potentiostatic EIS,28.3604,3.73566,-0.00214655,0.999998,0.0541728,-3.07711,0.0540947,0.00290799,0.149818,0.184183,0.00997773,2,2,3.73566
2,1,Potentiostatic EIS,32.956,3.73566,-0.0023635,0.794327,0.0543646,-2.91744,0.0542942,0.002767,0.171381,0.183367,0.00996869,2,2.51785,3.73566
2,1,Potentiostatic EIS,38.7352,3.73566,-0.00207963,0.630956,0.0545513,-2.83624,0.0544845,0.00269928,0.136696,0.182825,0.00997336,2,3.16979,3.73566
2,1,Potentiostatic EIS,46.0104,3.73566,-0.00179113,0.501186,0.0547296,-2.84368,0.0546622,0.0027152,0.110069,0.182145,0.0099687,2,3.99054,3.73566
2,1,Potentiostatic EIS,53.3013,3.73565,-0.00196916,0.5,0.0546908,-2.83865,0.0546236,0.00270848,0.125895,0.182348,0.00997272,2,4,3.73565