Folder: feature-extraction-paper-2024/Data/P180/P180_03/EIS_08_P180_03_4

Note: README.md
# feature-extraction-paper-2024
Repository for code used and referenced in 2024 feature extraction paper

File: 2_EIS_08_P180_03_4 20230828 110423.csv
Step number,Repeats,Step name,Elapsed Time  (s),DC Working Electrode (V),DC Current (A),Frequency (Hz),|Z| (Ohms),Phase (deg),Z' (Ohms),-Z" (Ohms),THD (%),Amplitude (A),Amplitude (V),No of Cycles,Duration of Each Frequency (s),IR Compensated DC Working Electrode (V)
2,1,Potentiostatic EIS,0,3.55865,-0.00972613,1000000,1.23523,84.5444,0.117438,-1.22963,1.40983,0.00812944,0.0100416,1430,0.00143,3.55865
2,1,Potentiostatic EIS,0.251126,3.5585,-0.0126874,794328,0.996454,84.1795,0.101052,-0.991316,1.6747,0.00976416,0.00972926,1445,0.00181915,3.5585
2,1,Potentiostatic EIS,0.533085,3.55841,-0.014246,630957.375,0.803669,83.448,0.091702,-0.79842,1.75359,0.0124567,0.0100111,1355,0.00214753,3.55841
2,1,Potentiostatic EIS,0.829762,3.55832,-0.0162086,501187.25,0.646,83.2676,0.0757326,-0.641546,1.78931,0.0154468,0.00997845,1385,0.00276344,3.55832
2,1,Potentiostatic EIS,1.14188,3.55824,-0.0179489,398107,0.520801,82.0968,0.0716099,-0.515854,1.97937,0.0191162,0.00995581,1400,0.00351664,3.55824
2,1,Potentiostatic EIS,1.57699,3.55814,-0.0195597,316228,0.41826,81.374,0.0627327,-0.413529,2.02909,0.0236398,0.00988763,1370,0.00433232,3.55814
2,1,Potentiostatic EIS,1.97689,3.55801,-0.0216872,251189,0.338511,80.3244,0.0568934,-0.333696,2.28069,0.029528,0.00999559,1340,0.00533464,3.55801
2,1,Potentiostatic EIS,2.41779,3.55792,-0.0236332,199526,0.272898,79.3032,0.050653,-0.268156,2.25283,0.0363521,0.0099205,1355,0.00679109,3.55792
2,1,Potentiostatic EIS,2.91654,3.55774,-0.0264767,158489,0.220942,77.6986,0.0470729,-0.215869,2.39347,0.0450286,0.00994873,1360,0.00858102,3.55774
2,1,Potentiostatic EIS,3.49731,3.55761,-0.0289494,125893,0.179729,75.9039,0.0437727,-0.174317,2.48627,0.0555761,0.00998864,1370,0.0108823,3.55761
2,1,Potentiostatic EIS,4.65693,3.5582,-0.0146782,100000,0.146458,73.8903,0.0406388,-0.140707,3.62305,0.068014,0.00996131,1370,0.0137,3.5582
2,1,Potentiostatic EIS,5.25031,3.5582,-0.0147004,79432.8,0.11982,71.2079,0.0385982,-0.113433,5.52378,0.0811491,0.00972146,1365,0.0171843,3.5582
2,1,Potentiostatic EIS,5.4897,3.55818,-0.0148363,63095.7,0.0983361,68.5131,0.0360193,-0.0915019,4.67588,0.101475,0.00997886,1290,0.0204451,3.55818
2,1,Potentiostatic EIS,5.7346,3.55819,-0.0145828,50118.75,0.0816577,65.147,0.03432,-0.0740953,5.12878,0.122434,0.00999774,1025,0.0204514,3.55819
2,1,Potentiostatic EIS,5.95989,3.55819,-0.0143958,39810.7,0.0686275,61.33,0.032925,-0.0602136,5.61984,0.141679,0.00972248,815,0.0204719,3.55819
2,1,Potentiostatic EIS,6.17941,3.55819,-0.0139487,31622.8,0.0582924,57.0299,0.0317228,-0.0489046,5.71566,0.168417,0.00981696,645,0.0203967,3.55819
2,1,Potentiostatic EIS,6.39915,3.55852,-0.00659081,25118.9,0.050027,52.3764,0.03054,-0.0396233,6.05986,0.197942,0.00990377,510,0.0203034,3.55852
2,1,Potentiostatic EIS,6.61866,3.55862,-0.0050873,19952.6,0.0434302,47.1703,0.0295248,-0.0318508,6.17376,0.232322,0.01009,405,0.0202981,3.55862
2,1,Potentiostatic EIS,6.85803,3.55865,-0.00395153,15848.9,0.0383692,41.697,0.0286493,-0.0255228,5.90597,0.259846,0.00997009,320,0.0201906,3.55865
2,1,Potentiostatic EIS,7.09313,3.55868,-0.0036239,12589.2,0.0347946,36.2226,0.0280698,-0.020561,5.77506,0.288586,0.0100414,255,0.0202554,3.55868
2,1,Potentiostatic EIS,7.44282,3.55869,-0.0020131,9999.98,0.0322653,30.923,0.0276791,-0.0165807,2.41194,0.309883,0.00999848,307,0.0307001,3.55869
2,1,Potentiostatic EIS,7.65541,3.55873,-0.00136718,7943.27,0.0303047,26.331,0.0271605,-0.0134418,2.91146,0.29234,0.0088593,244,0.0307178,3.55873
2,1,Potentiostatic EIS,7.86816,3.55872,-0.00176634,6309.57,0.0280938,21.267,0.0261806,-0.01019,3.15062,0.377861,0.0106156,193,0.0305885,3.55872
2,1,Potentiostatic EIS,8.08006,3.55878,-0.000875593,5011.87,0.0275689,15.3812,0.0265815,-0.00731236,3.21108,0.375937,0.0103642,153,0.0305276,3.55878
2,1,Potentiostatic EIS,8.29119,3.55879,-0.000407441,3981.07,0.0274018,11.4688,0.0268547,-0.00544845,3.10759,0.370337,0.0101479,122,0.0306451,3.55879
2,1,Potentiostatic EIS,8.46343,3.55882,0.000193229,3162.27,0.0273389,8.41922,0.0270443,-0.00400282,2.98038,0.37369,0.0102163,97,0.0306742,3.55882
2,1,Potentiostatic EIS,8.63122,3.55884,0.000572965,2511.88,0.0273359,5.8329,0.0271944,-0.00277808,2.77335,0.379258,0.0103674,77,0.0306543,3.55884
2,1,Potentiostatic EIS,8.80203,3.55884,0.000330083,1995.26,0.0274468,3.63112,0.0273917,-0.00173827,2.57374,0.371033,0.0101837,61,0.0305725,3.55884
2,1,Potentiostatic EIS,8.92868,3.55883,0.000388502,1584.89,0.0276113,1.85211,0.0275969,-0.000892392,2.5469,0.341088,0.00941791,48,0.030286,3.55883
2,1,Potentiostatic EIS,9.05233,3.55884,0.000526824,1258.92,0.0278349,0.377846,0.0278343,-0.00018356,2.45944,0.372669,0.0103732,38,0.0301845,3.55884
2,1,Potentiostatic EIS,9.17606,3.55885,0.000479809,999.999,0.0280758,-0.843643,0.0280728,0.000413383,2.39879,0.363662,0.0102101,30,0.03,3.55885
2,1,Potentiostatic EIS,9.30013,3.55886,0.00103817,794.328,0.0283788,-1.90355,0.0283632,0.000942664,2.32195,0.356192,0.0101083,24,0.0302142,3.55886
2,1,Potentiostatic EIS,9.42347,3.55885,0.000686396,630.956,0.0286851,-2.82678,0.0286502,0.00141465,2.22933,0.350788,0.0100624,19,0.030113,3.55885
2,1,Potentiostatic EIS,9.54788,3.55887,0.00136828,501.187,0.029034,-3.70149,0.0289734,0.00187438,2.11829,0.345502,0.0100313,15,0.029929,3.55887
2,1,Potentiostatic EIS,9.62877,3.55886,0.0012975,398.107,0.0294166,-4.48557,0.0293265,0.00230062,2.0051,0.304487,0.00895699,12,0.0301427,3.55886
2,1,Potentiostatic EIS,9.70797,3.55887,0.001372,316.228,0.0298554,-5.2112,0.029732,0.00271168,1.80678,0.313767,0.00936763,9,0.0284605,3.55887
2,1,Potentiostatic EIS,9.78925,3.55886,0.00119564,251.189,0.0303793,-5.97752,0.0302141,0.00316365,1.61802,0.317051,0.00963178,8,0.0318486,3.55886
2,1,Potentiostatic EIS,9.87851,3.55886,0.00124423,199.526,0.0309711,-6.63199,0.0307639,0.00357691,1.41132,0.316337,0.00979732,8,0.0400951,3.55886
2,1,Potentiostatic EIS,9.97908,3.55887,0.00119269,158.489,0.0315838,-7.20076,0.0313347,0.00395892,1.18373,0.312655,0.00987485,8,0.0504766,3.55887
2,1,Potentiostatic EIS,10.0918,3.55886,0.00127082,125.892,0.0323187,-7.74485,0.0320239,0.00435533,1.01148,0.307072,0.00992418,8,0.0635464,3.55886
2,1,Potentiostatic EIS,10.2213,3.55886,0.00123452,100,0.033153,-8.19319,0.0328146,0.00472468,0.806756,0.300082,0.00994864,8,0.08,3.55886
2,1,Potentiostatic EIS,10.3733,3.55886,0.00158112,79.4327,0.0340312,-8.44852,0.0336619,0.00499989,0.676977,0.29254,0.00995549,8,0.100714,3.55886
2,1,Potentiostatic EIS,10.5526,3.55886,0.00131725,63.0956,0.0349481,-8.54649,0.03456,0.0051937,0.548406,0.284815,0.00995373,8,0.126792,3.55886
2,1,Potentiostatic EIS,10.7678,3.55887,0.00183224,50.1186,0.0358894,-8.58902,0.0354869,0.00535993,0.446445,0.274017,0.00983431,8,0.159621,3.55887
2,1,Potentiostatic EIS,11.0267,3.55885,0.000704563,39.8107,0.0368285,-8.43833,0.0364298,0.0054044,0.367283,0.26736,0.00984648,8,0.200951,3.55885
2,1,Potentiostatic EIS,11.1701,3.55885,-0.000379695,31.6228,0.0377023,-8.26381,0.0373109,0.005419,0.280666,0.263218,0.00992401,2,0.0632456,3.55885
2,1,Potentiostatic EIS,11.3329,3.55885,0.000671942,25.1188,0.0386536,-7.86567,0.0382899,0.00528978,0.286189,0.250155,0.00966921,2,0.0796217,3.55885
2,1,Potentiostatic EIS,11.5331,3.55886,0.000730518,19.9526,0.0395098,-7.50499,0.0391713,0.00516047,0.261653,0.247572,0.00978158,2,0.100238,3.55886
2,1,Potentiostatic EIS,11.7811,3.55887,0.000826372,15.8489,0.0403458,-7.06848,0.0400392,0.00496477,0.236597,0.243816,0.00983689,2,0.126192,3.55887
2,1,Potentiostatic EIS,12.0877,3.55886,0.000590597,12.5892,0.0411129,-6.60103,0.0408403,0.00472613,0.231792,0.240461,0.00988606,2,0.158866,3.55886
2,1,Potentiostatic EIS,12.4687,3.55886,0.000632837,9.99998,0.0417894,-6.08629,0.0415539,0.00443078,0.213448,0.237115,0.0099089,2,0.2,3.55886
2,1,Potentiostatic EIS,12.9435,3.55887,0.000432664,7.94328,0.0424414,-5.5881,0.0422397,0.00413278,0.206978,0.233954,0.00992932,2,0.251785,3.55887
2,1,Potentiostatic EIS,13.5373,3.55888,0.00037331,6.30957,0.0430201,-5.05687,0.0428526,0.00379199,0.188448,0.231021,0.00993854,2,0.316979,3.55888
2,1,Potentiostatic EIS,14.2779,3.55887,0.000310841,5.01186,0.0435031,-4.5727,0.0433647,0.00346824,0.19047,0.228749,0.00995128,2,0.399053,3.55887
2,1,Potentiostatic EIS,15.205,3.55887,0.000285076,3.98106,0.043926,-4.09232,0.043814,0.00313472,0.19001,0.226656,0.00995611,2,0.502378,3.55887
2,1,Potentiostatic EIS,16.37,3.55887,5.82856e-05,3.16227,0.0442745,-3.66968,0.0441838,0.00283376,0.187975,0.22499,0.00996135,2,0.632458,3.55887
2,1,Potentiostatic EIS,17.8322,3.55887,-0.000124896,2.51188,0.0445632,-3.35027,0.0444871,0.00260427,0.181228,0.223391,0.00995502,2,0.796216,3.55887
2,1,Potentiostatic EIS,19.6717,3.55887,0.000136793,1.99526,0.0447815,-3.03348,0.0447188,0.00236981,0.177175,0.222281,0.00995408,2,1.00238,3.55887
2,1,Potentiostatic EIS,21.9816,3.55887,-0.000319936,1.58489,0.044998,-2.8489,0.0449423,0.0022365,0.171537,0.221427,0.00996376,2,1.26192,3.55887
2,1,Potentiostatic EIS,24.8864,3.55887,-0.000362986,1.25892,0.0451773,-2.72274,0.0451262,0.00214605,0.182894,0.220485,0.00996091,2,1.58866,3.55887
2,1,Potentiostatic EIS,28.538,3.55887,-6.51666e-05,0.999998,0.0453411,-2.67735,0.0452917,0.00211796,0.162995,0.219787,0.00996539,2,2,3.55887
2,1,Potentiostatic EIS,33.1326,3.55888,-0.000652582,0.794327,0.0455198,-2.69995,0.0454692,0.00214424,0.16348,0.218937,0.00996597,2,2.51785,3.55888
2,1,Potentiostatic EIS,38.9109,3.55888,-0.000357692,0.630956,0.0456715,-2.81833,0.0456163,0.00224564,0.180534,0.218261,0.00996832,2,3.16979,3.55888
2,1,Potentiostatic EIS,46.1855,3.55888,0.000108252,0.501186,0.0458439,-3.00919,0.0457807,0.00240663,0.155211,0.217224,0.00995839,2,3.99054,3.55888
2,1,Potentiostatic EIS,53.4746,3.55889,-0.000176899,0.5,0.0458447,-3.01875,0.0457811,0.00241431,0.176856,0.21746,0.00996941,2,4,3.55889