Folder: feature-extraction-paper-2024/Data/P180/P180_03/EIS_04_P180_03_1

Note: README.md
# feature-extraction-paper-2024
Repository for code used and referenced in 2024 feature extraction paper

File: 2_EIS_04_P180_03_1 20230822 145630.csv
Step number,Repeats,Step name,Elapsed Time  (s),DC Working Electrode (V),DC Current (A),Frequency (Hz),|Z| (Ohms),Phase (deg),Z' (Ohms),-Z" (Ohms),THD (%),Amplitude (A),Amplitude (V),No of Cycles,Duration of Each Frequency (s),IR Compensated DC Working Electrode (V)
2,1,Potentiostatic EIS,0,3.48263,-0.00955116,1000000,3.76272,88.4455,0.102077,-3.76134,1.14613,0.00264429,0.00995015,1430,0.00143,3.48263
2,1,Potentiostatic EIS,0.227012,3.48259,-0.0102998,794328,3.00408,88.1713,0.0958649,-3.00255,1.24451,0.00329933,0.00991127,1445,0.00181915,3.48259
2,1,Potentiostatic EIS,0.468223,3.48257,-0.0105886,630957.375,2.39252,87.6107,0.0997403,-2.39044,1.15857,0.00414195,0.00990984,1355,0.00214753,3.48257
2,1,Potentiostatic EIS,0.718225,3.48253,-0.0112382,501187.25,1.90836,87.5623,0.0811698,-1.90664,1.15302,0.0051319,0.0097935,1385,0.00276344,3.48253
2,1,Potentiostatic EIS,0.995224,3.48247,-0.0120583,398107,1.52452,86.8893,0.0827297,-1.52228,1.1988,0.00652929,0.00995406,1400,0.00351664,3.48247
2,1,Potentiostatic EIS,1.29432,3.48244,-0.0123647,316228,1.21557,86.5196,0.0737937,-1.21333,1.29251,0.00817527,0.00993763,1370,0.00433232,3.48244
2,1,Potentiostatic EIS,1.627,3.48241,-0.0131254,251189,0.972677,85.7367,0.0723091,-0.969985,1.22616,0.0102614,0.00998102,1340,0.00533464,3.48241
2,1,Potentiostatic EIS,2.03181,3.48237,-0.0140784,199526,0.775727,85.6432,0.0589299,-0.773485,1.37674,0.0127979,0.00992767,1355,0.00679109,3.48237
2,1,Potentiostatic EIS,2.49189,3.48232,-0.0143664,158489,0.623405,84.7514,0.0570276,-0.620791,1.32548,0.0159582,0.00994842,1360,0.00858102,3.48232
2,1,Potentiostatic EIS,3.026,3.48224,-0.0155406,125893,0.5011,84.0412,0.0520207,-0.498392,1.33482,0.0199141,0.00997891,1370,0.0108823,3.48224
2,1,Potentiostatic EIS,3.91365,3.48215,-0.016733,100000,0.399926,83.2478,0.0470216,-0.397152,1.75665,0.0249048,0.00996008,1370,0.0137,3.48215
2,1,Potentiostatic EIS,4.58483,3.4821,-0.0169488,79432.8,0.322443,82.1562,0.0440045,-0.319426,1.98199,0.0310645,0.0100166,1365,0.0171843,3.4821
2,1,Potentiostatic EIS,4.83074,3.48203,-0.0182232,63095.7,0.258243,81.2509,0.0392809,-0.255238,1.78299,0.0386263,0.00997497,1290,0.0204451,3.48203
2,1,Potentiostatic EIS,5.08081,3.48196,-0.0194365,50118.75,0.206922,79.6879,0.0370409,-0.203579,1.99746,0.0480791,0.00995125,1025,0.0204514,3.48196
2,1,Potentiostatic EIS,5.33637,3.48194,-0.0199273,39810.7,0.168238,77.7132,0.0358019,-0.164385,1.92026,0.0592139,0.00996208,815,0.0204719,3.48194
2,1,Potentiostatic EIS,5.6843,3.48194,-0.0190022,31622.8,0.136777,75.3957,0.0344873,-0.132358,2.08531,0.0732922,0.0100248,645,0.0203967,3.48194
2,1,Potentiostatic EIS,6.01596,3.48277,-0.00088614,25118.9,0.111179,72.9181,0.0326576,-0.106274,5.59455,0.0903178,0.0100415,510,0.0203034,3.48277
2,1,Potentiostatic EIS,6.23125,3.48285,-0.000473154,19952.6,0.0904189,70.0407,0.0308647,-0.0849879,6.21091,0.109145,0.00986866,405,0.0202981,3.48285
2,1,Potentiostatic EIS,6.44687,3.4828,-5.13428e-05,15848.9,0.0739393,66.5395,0.0294365,-0.0678271,6.9356,0.133988,0.00990699,320,0.0201906,3.4828
2,1,Potentiostatic EIS,6.65416,3.48289,0.000292031,12589.2,0.0614931,62.1444,0.0287324,-0.0543678,7.29204,0.163372,0.0100463,255,0.0202554,3.48289
2,1,Potentiostatic EIS,6.96241,3.48304,0.000476539,9999.98,0.051918,57.0837,0.0282129,-0.0435834,3.52256,0.192691,0.0100041,307,0.0307001,3.48304
2,1,Potentiostatic EIS,7.17328,3.48305,0.00029413,7943.27,0.0445217,51.8157,0.027523,-0.0349953,4.32902,0.237131,0.0105575,244,0.0307178,3.48305
2,1,Potentiostatic EIS,7.38862,3.48306,0.000608653,6309.57,0.0380664,46.1033,0.0263938,-0.0274303,4.94702,0.27434,0.0104432,193,0.0305885,3.48306
2,1,Potentiostatic EIS,7.59972,3.4831,0.00115166,5011.87,0.0339241,38.161,0.0266738,-0.0209608,5.0716,0.302355,0.0102571,153,0.0305276,3.4831
2,1,Potentiostatic EIS,7.76635,3.48312,0.00164753,3981.07,0.031451,31.2739,0.026881,-0.0163271,4.99761,0.271431,0.00853678,122,0.0306451,3.48312
2,1,Potentiostatic EIS,7.93408,3.48312,0.00155191,3162.27,0.0298189,25.1037,0.0270022,-0.0126509,4.45903,0.344897,0.0102844,97,0.0306742,3.48312
2,1,Potentiostatic EIS,8.10127,3.4831,0.00136016,2511.88,0.0288238,19.5596,0.0271605,-0.00964984,4.02981,0.360931,0.0104034,77,0.0306543,3.4831
2,1,Potentiostatic EIS,8.26846,3.48315,0.00226458,1995.26,0.0282582,14.7167,0.0273312,-0.0071787,3.50849,0.361773,0.0102231,61,0.0305725,3.48315
2,1,Potentiostatic EIS,8.39204,3.48315,0.00217191,1584.89,0.0280304,10.6888,0.0275441,-0.00519895,3.14759,0.31936,0.0089518,48,0.030286,3.48315
2,1,Potentiostatic EIS,8.51415,3.48314,0.00223458,1258.92,0.0279828,7.4093,0.0277491,-0.00360856,2.80212,0.368781,0.0103195,38,0.0301845,3.48314
2,1,Potentiostatic EIS,8.63756,3.48315,0.00223262,999.999,0.0280901,4.57726,0.0280005,-0.00224169,2.57531,0.364827,0.010248,30,0.03,3.48315
2,1,Potentiostatic EIS,8.76124,3.48316,0.00264604,794.328,0.0283404,2.3258,0.028317,-0.0011501,2.35975,0.35785,0.0101416,24,0.0302142,3.48316
2,1,Potentiostatic EIS,8.88511,3.48317,0.00252915,630.956,0.0286211,0.41385,0.0286204,-0.00020673,2.18738,0.351444,0.0100587,19,0.030113,3.48317
2,1,Potentiostatic EIS,9.00873,3.48316,0.00268382,501.187,0.0289572,-1.20664,0.0289508,0.000609789,2.09476,0.34659,0.0100363,15,0.029929,3.48316
2,1,Potentiostatic EIS,9.0896,3.48317,0.00282082,398.107,0.0293761,-2.609,0.0293456,0.0013372,2.00621,0.301202,0.00884813,12,0.0301427,3.48317
2,1,Potentiostatic EIS,9.16879,3.48317,0.0028173,316.228,0.0298567,-3.86256,0.0297889,0.00201125,1.83092,0.311589,0.00930302,9,0.0284605,3.48317
2,1,Potentiostatic EIS,9.25047,3.48318,0.00283925,251.189,0.030397,-4.88982,0.0302863,0.00259103,1.64485,0.315447,0.00958864,8,0.0318486,3.48318
2,1,Potentiostatic EIS,9.33914,3.48318,0.00311459,199.526,0.0310027,-5.81074,0.0308434,0.0031388,1.47185,0.314723,0.00975728,8,0.0400951,3.48318
2,1,Potentiostatic EIS,9.43826,3.48317,0.00313584,158.489,0.0316946,-6.56951,0.0314865,0.00362613,1.24649,0.311302,0.00986658,8,0.0504766,3.48317
2,1,Potentiostatic EIS,9.55268,3.48318,0.00324468,125.892,0.0324477,-7.26301,0.0321873,0.00410217,1.06536,0.305704,0.00991937,8,0.0635464,3.48318
2,1,Potentiostatic EIS,9.68201,3.48318,0.00309156,100,0.033289,-7.7834,0.0329823,0.00450828,0.844356,0.298751,0.00994513,8,0.08,3.48318
2,1,Potentiostatic EIS,9.83433,3.48317,0.0029673,79.4327,0.0341766,-8.08351,0.033837,0.00480578,0.717907,0.291265,0.00995445,8,0.100714,3.48317
2,1,Potentiostatic EIS,10.0137,3.48317,0.00276826,63.0956,0.0350933,-8.22355,0.0347324,0.0050196,0.572039,0.283566,0.00995128,8,0.126792,3.48317
2,1,Potentiostatic EIS,10.2281,3.48319,0.00325672,50.1186,0.036012,-8.30107,0.0356347,0.00519923,0.482985,0.271111,0.00976326,8,0.159621,3.48319
2,1,Potentiostatic EIS,10.4872,3.48316,0.00250956,39.8107,0.0369379,-8.16239,0.0365637,0.00524442,0.381302,0.265185,0.00979537,8,0.200951,3.48316
2,1,Potentiostatic EIS,10.6299,3.48318,0.00149588,31.6228,0.0378028,-8.03961,0.0374313,0.00528702,0.308857,0.262072,0.00990714,2,0.0632456,3.48318
2,1,Potentiostatic EIS,10.7916,3.48318,0.00213201,25.1188,0.0387204,-7.65942,0.0383749,0.00516082,0.264231,0.249584,0.00966385,2,0.0796217,3.48318
2,1,Potentiostatic EIS,10.9909,3.48317,0.00149846,19.9526,0.0395671,-7.38164,0.0392392,0.0050835,0.243379,0.24683,0.00976648,2,0.100238,3.48317
2,1,Potentiostatic EIS,11.2379,3.48317,0.00170533,15.8489,0.0403647,-6.96531,0.0400668,0.00489496,0.211757,0.243658,0.00983518,2,0.126192,3.48317
2,1,Potentiostatic EIS,11.5444,3.48318,0.001833,12.5892,0.0411305,-6.56046,0.0408612,0.00469923,0.201389,0.240262,0.00988211,2,0.158866,3.48318
2,1,Potentiostatic EIS,11.9258,3.48318,0.00146458,9.99998,0.0418298,-6.09712,0.0415932,0.00444292,0.191502,0.236995,0.00991347,2,0.2,3.48318
2,1,Potentiostatic EIS,12.4008,3.48318,0.00144042,7.94328,0.0424829,-5.63368,0.0422777,0.00417046,0.194346,0.233622,0.00992493,2,0.251785,3.48318
2,1,Potentiostatic EIS,12.9946,3.48319,0.00161573,6.30957,0.0430646,-5.14757,0.0428909,0.00386381,0.186594,0.230822,0.00994028,2,0.316979,3.48319
2,1,Potentiostatic EIS,13.7372,3.48319,0.00156712,5.01186,0.0435738,-4.70956,0.0434267,0.00357762,0.170422,0.22825,0.00994573,2,0.399053,3.48319
2,1,Potentiostatic EIS,14.6646,3.48317,0.00104218,3.98106,0.0440288,-4.23637,0.0439085,0.00325246,0.17634,0.226008,0.00995084,2,0.502378,3.48317
2,1,Potentiostatic EIS,15.829,3.48318,0.000971759,3.16227,0.0444082,-3.85835,0.0443075,0.00298823,0.165621,0.224284,0.00996006,2,0.632458,3.48318
2,1,Potentiostatic EIS,17.2911,3.48318,0.00098774,2.51188,0.0447246,-3.50225,0.0446411,0.00273212,0.172728,0.222613,0.00995627,2,0.796216,3.48318
2,1,Potentiostatic EIS,19.1292,3.48318,0.000694132,1.99526,0.0449772,-3.26987,0.044904,0.00256545,0.181681,0.22159,0.00996652,2,1.00238,3.48318
2,1,Potentiostatic EIS,21.4393,3.48318,0.000259091,1.58489,0.0451925,-3.07156,0.0451276,0.00242155,0.131299,0.220411,0.0099609,2,1.26192,3.48318
2,1,Potentiostatic EIS,24.3443,3.48318,0.000621802,1.25892,0.045393,-2.94123,0.0453332,0.00232919,0.163842,0.219437,0.00996089,2,1.58866,3.48318
2,1,Potentiostatic EIS,27.9964,3.48318,7.93005e-05,0.999998,0.04557,-2.94182,0.04551,0.00233874,0.157584,0.218689,0.00996565,2,2,3.48318
2,1,Potentiostatic EIS,32.5909,3.48319,-7.75682e-05,0.794327,0.0457517,-2.99399,0.0456892,0.00238967,0.157157,0.217767,0.00996321,2,2.51785,3.48319
2,1,Potentiostatic EIS,38.3707,3.48318,0.000267606,0.630956,0.0459331,-3.11048,0.0458654,0.0024924,0.171871,0.216898,0.00996279,2,3.16979,3.48318
2,1,Potentiostatic EIS,45.646,3.48317,-0.000643386,0.501186,0.0461379,-3.35683,0.0460588,0.00270157,0.161666,0.216037,0.00996751,2,3.99054,3.48317
2,1,Potentiostatic EIS,52.9361,3.48318,-0.000434455,0.5,0.0461114,-3.37834,0.0460313,0.0027173,0.145494,0.216112,0.00996526,2,4,3.48318