Folder: feature-extraction-paper-2024/Data/P180/P180_03/EIS_02_P180_03_1

Note: README.md
# feature-extraction-paper-2024
Repository for code used and referenced in 2024 feature extraction paper

File: 2_EIS_02_P180_03_1 20230821 142156.csv
Step number,Repeats,Step name,Elapsed Time  (s),DC Working Electrode (V),DC Current (A),Frequency (Hz),|Z| (Ohms),Phase (deg),Z' (Ohms),-Z" (Ohms),THD (%),Amplitude (A),Amplitude (V),No of Cycles,Duration of Each Frequency (s),IR Compensated DC Working Electrode (V)
2,1,Potentiostatic EIS,0,3.72154,-0.0134656,1000000,3.11512,88.0373,0.106689,-3.11329,0.945863,0.00318183,0.00991176,1430,0.00143,3.72154
2,1,Potentiostatic EIS,0.227128,3.7215,-0.0142245,794328,2.48804,87.565,0.105709,-2.48579,1.16444,0.00397682,0.00989467,1445,0.00181915,3.7215
2,1,Potentiostatic EIS,0.470122,3.72144,-0.0147159,630957.375,1.98708,86.9966,0.104112,-1.98435,0.962712,0.00489574,0.00972881,1355,0.00214753,3.72144
2,1,Potentiostatic EIS,0.741277,3.7214,-0.0151805,501187.25,1.58632,87.019,0.0824953,-1.58417,1.16076,0.00628497,0.00997001,1385,0.00276344,3.7214
2,1,Potentiostatic EIS,1.0279,3.72134,-0.0160676,398107,1.26738,86.0932,0.0863503,-1.26444,1.06697,0.00787174,0.00997651,1400,0.00351664,3.72134
2,1,Potentiostatic EIS,1.32829,3.7213,-0.0164046,316228,1.00923,85.6826,0.0759759,-1.00637,1.14241,0.00983203,0.00992283,1370,0.00433232,3.7213
2,1,Potentiostatic EIS,1.72275,3.72126,-0.0169531,251189,0.810987,84.8484,0.0728193,-0.807711,1.28496,0.0122064,0.00989945,1340,0.00533464,3.72126
2,1,Potentiostatic EIS,2.12729,3.7212,-0.0177567,199526,0.647124,84.4935,0.0620967,-0.644138,1.1804,0.0153228,0.00991576,1355,0.00679109,3.7212
2,1,Potentiostatic EIS,2.583,3.72115,-0.0184024,158489,0.521666,83.4144,0.0598285,-0.518224,1.39638,0.0191236,0.00997617,1360,0.00858102,3.72115
2,1,Potentiostatic EIS,3.33945,3.72105,-0.0194591,125893,0.419224,82.53,0.0545022,-0.415666,1.65273,0.0238072,0.00998052,1370,0.0108823,3.72105
2,1,Potentiostatic EIS,3.95619,3.72098,-0.020505,100000,0.336066,81.4317,0.0500699,-0.332315,1.52986,0.0296785,0.00997397,1370,0.0137,3.72098
2,1,Potentiostatic EIS,4.61997,3.72092,-0.0212024,79432.8,0.271504,79.8719,0.0477436,-0.267273,2.19565,0.0368595,0.0100075,1365,0.0171843,3.72092
2,1,Potentiostatic EIS,4.86203,3.72081,-0.0227977,63095.7,0.218431,78.416,0.043862,-0.213982,1.76263,0.0457741,0.00999856,1290,0.0204451,3.72081
2,1,Potentiostatic EIS,5.11508,3.72078,-0.0233714,50118.75,0.177594,76.306,0.0420429,-0.172545,1.82554,0.0556009,0.00987541,1025,0.0204514,3.72078
2,1,Potentiostatic EIS,5.46797,3.7208,-0.0230175,39810.7,0.143629,74.0225,0.0395352,-0.13808,1.98666,0.0678407,0.00974389,815,0.0204719,3.7208
2,1,Potentiostatic EIS,5.81687,3.72121,-0.015825,31622.8,0.117671,71.1031,0.0381098,-0.111329,4.55452,0.0828841,0.00975306,645,0.0203967,3.72121
2,1,Potentiostatic EIS,6.04783,3.72164,-0.00772773,25118.9,0.096592,67.8418,0.0364311,-0.0894583,5.92257,0.104185,0.0100635,510,0.0203034,3.72164
2,1,Potentiostatic EIS,6.28442,3.72166,-0.00682889,19952.6,0.0796231,63.9207,0.0350035,-0.0715164,6.49655,0.126113,0.0100416,405,0.0202981,3.72166
2,1,Potentiostatic EIS,6.49842,3.72174,-0.00657401,15848.9,0.0662863,59.5251,0.0336178,-0.0571289,6.60681,0.147296,0.00976373,320,0.0201906,3.72174
2,1,Potentiostatic EIS,6.70137,3.72174,-0.00597692,12589.2,0.0564059,54.2948,0.0329193,-0.0458033,6.88197,0.175484,0.00989824,255,0.0202554,3.72174
2,1,Potentiostatic EIS,7.0139,3.7217,-0.00606284,9999.98,0.04896,48.5583,0.0324045,-0.0367019,3.2425,0.204357,0.0100053,307,0.0307001,3.7217
2,1,Potentiostatic EIS,7.22476,3.72173,-0.0057797,7943.27,0.0433274,42.8715,0.0317538,-0.0294781,3.91072,0.244491,0.0105931,244,0.0307178,3.72173
2,1,Potentiostatic EIS,7.43605,3.72175,-0.00516244,6309.57,0.0382741,36.675,0.0306973,-0.0228602,4.41877,0.272297,0.0104219,193,0.0305885,3.72175
2,1,Potentiostatic EIS,7.64858,3.72177,-0.00485449,5011.87,0.0355911,29.1778,0.0310749,-0.0173514,4.43398,0.287484,0.0102319,153,0.0305276,3.72177
2,1,Potentiostatic EIS,7.81641,3.72179,-0.00458969,3981.07,0.0340556,23.1504,0.0313133,-0.0133888,4.26487,0.275932,0.00939701,122,0.0306451,3.72179
2,1,Potentiostatic EIS,7.98431,3.72178,-0.00444622,3162.27,0.0331015,18.0216,0.0314776,-0.0102408,3.89144,0.317712,0.0105168,97,0.0306742,3.72178
2,1,Potentiostatic EIS,8.15222,3.72182,-0.00395191,2511.88,0.0325444,13.5827,0.0316342,-0.00764302,3.613,0.31665,0.0103052,77,0.0306543,3.72182
2,1,Potentiostatic EIS,8.3199,3.72183,-0.00363447,1995.26,0.0323481,9.83874,0.0318723,-0.0055275,3.17077,0.313008,0.0101252,61,0.0305725,3.72183
2,1,Potentiostatic EIS,8.44188,3.72181,-0.00386251,1584.89,0.0323363,6.74452,0.0321125,-0.00379765,2.83546,0.314466,0.0101687,48,0.030286,3.72181
2,1,Potentiostatic EIS,8.56552,3.72184,-0.00341078,1258.92,0.0324565,4.24989,0.0323673,-0.00240524,2.6898,0.317702,0.0103115,38,0.0301845,3.72184
2,1,Potentiostatic EIS,8.68927,3.72184,-0.00344171,999.999,0.0327092,2.17471,0.0326856,-0.0012412,2.49097,0.311364,0.0101844,30,0.03,3.72184
2,1,Potentiostatic EIS,8.81188,3.72183,-0.00347237,794.328,0.0329886,0.420933,0.0329877,-0.000242354,2.45087,0.305602,0.0100814,24,0.0302142,3.72183
2,1,Potentiostatic EIS,8.93584,3.72185,-0.00336958,630.956,0.0333542,-1.06012,0.0333485,0.0006171,2.26506,0.301389,0.0100526,19,0.030113,3.72185
2,1,Potentiostatic EIS,9.01483,3.72184,-0.00321977,501.187,0.0337517,-2.34523,0.0337235,0.00138114,2.17929,0.252733,0.00853018,15,0.029929,3.72184
2,1,Potentiostatic EIS,9.09467,3.72184,-0.00325965,398.107,0.0342101,-3.50738,0.034146,0.00209288,2.01279,0.265496,0.00908264,12,0.0301427,3.72184
2,1,Potentiostatic EIS,9.17327,3.72184,-0.00317504,316.228,0.0346924,-4.5015,0.0345854,0.00272284,1.78291,0.2724,0.0094502,9,0.0284605,3.72184
2,1,Potentiostatic EIS,9.25443,3.72185,-0.00317023,251.189,0.0352926,-5.5176,0.0351291,0.00339344,1.59823,0.274414,0.00968478,8,0.0318486,3.72185
2,1,Potentiostatic EIS,9.34406,3.72186,-0.00273998,199.526,0.0359845,-6.40997,0.0357596,0.00401738,1.38742,0.273251,0.0098328,8,0.0400951,3.72186
2,1,Potentiostatic EIS,9.44367,3.72185,-0.00275268,158.489,0.0367264,-7.20398,0.0364365,0.00460557,1.16518,0.269798,0.00990871,8,0.0504766,3.72185
2,1,Potentiostatic EIS,9.55665,3.72185,-0.00284861,125.892,0.0376002,-7.99277,0.0372349,0.00522823,0.99951,0.264705,0.00995295,8,0.0635464,3.72185
2,1,Potentiostatic EIS,9.68684,3.72186,-0.0027774,100,0.0386357,-8.70454,0.0381907,0.0058471,0.778623,0.258188,0.00997528,8,0.08,3.72186
2,1,Potentiostatic EIS,9.83856,3.72185,-0.00281438,79.4327,0.0397671,-9.19037,0.0392566,0.00635141,0.636229,0.250983,0.00998084,8,0.100714,3.72185
2,1,Potentiostatic EIS,10.018,3.72184,-0.00318169,63.0956,0.040966,-9.4814,0.0404064,0.00674822,0.526401,0.243469,0.00997393,8,0.126792,3.72184
2,1,Potentiostatic EIS,10.2328,3.72185,-0.00268903,50.1186,0.0422572,-9.67311,0.0416564,0.00710033,0.437768,0.232264,0.00981483,8,0.159621,3.72185
2,1,Potentiostatic EIS,10.4918,3.72184,-0.0032541,39.8107,0.043561,-9.55611,0.0429565,0.00723171,0.330911,0.225873,0.00983924,8,0.200951,3.72184
2,1,Potentiostatic EIS,10.6358,3.72185,-0.00432584,31.6228,0.0447975,-9.42423,0.0441929,0.00733529,0.317289,0.221663,0.00993004,2,0.0632456,3.72185
2,1,Potentiostatic EIS,10.7985,3.72184,-0.0033427,25.1188,0.0460998,-9.01004,0.045531,0.00721958,0.252626,0.209929,0.00967766,2,0.0796217,3.72184
2,1,Potentiostatic EIS,10.9985,3.72185,-0.0034401,19.9526,0.0472923,-8.61844,0.0467583,0.00708692,0.248017,0.206952,0.00978716,2,0.100238,3.72185
2,1,Potentiostatic EIS,11.2454,3.72184,-0.00393202,15.8489,0.0484242,-8.1228,0.0479383,0.0068421,0.20235,0.203284,0.00984392,2,0.126192,3.72184
2,1,Potentiostatic EIS,11.5519,3.72185,-0.0034481,12.5892,0.0494932,-7.65982,0.0490516,0.00659702,0.207505,0.199777,0.00988755,2,0.158866,3.72185
2,1,Potentiostatic EIS,11.9329,3.72185,-0.00342329,9.99998,0.0504993,-7.14613,0.050107,0.00628213,0.177805,0.196481,0.00992214,2,0.2,3.72185
2,1,Potentiostatic EIS,12.4069,3.72185,-0.00344655,7.94328,0.0514348,-6.60256,0.0510936,0.00591405,0.17588,0.19328,0.00994132,2,0.251785,3.72185
2,1,Potentiostatic EIS,12.9982,3.72185,-0.00356852,6.30957,0.0522828,-6.04277,0.0519922,0.00550385,0.183036,0.190268,0.00994776,2,0.316979,3.72185
2,1,Potentiostatic EIS,13.7386,3.72186,-0.00349433,5.01186,0.0530201,-5.44418,0.0527809,0.00503033,0.167906,0.187876,0.00996119,2,0.399053,3.72186
2,1,Potentiostatic EIS,14.6653,3.72184,-0.00347498,3.98106,0.053702,-4.91042,0.0535049,0.00459678,0.157217,0.185556,0.00996471,2,0.502378,3.72184
2,1,Potentiostatic EIS,15.8303,3.72185,-0.00355209,3.16227,0.0542399,-4.39311,0.0540805,0.00415472,0.165191,0.183811,0.00996988,2,0.632458,3.72185
2,1,Potentiostatic EIS,17.2928,3.72185,-0.00353177,2.51188,0.054695,-3.89988,0.0545683,0.00371998,0.176658,0.182227,0.00996691,2,0.796216,3.72185
2,1,Potentiostatic EIS,19.1315,3.72185,-0.00337521,1.99526,0.0550761,-3.45881,0.0549758,0.0033228,0.162601,0.181051,0.0099716,2,1.00238,3.72185
2,1,Potentiostatic EIS,21.4417,3.72185,-0.00336017,1.58489,0.0553873,-3.1321,0.0553046,0.00302627,0.128071,0.180033,0.00997157,2,1.26192,3.72185
2,1,Potentiostatic EIS,24.3459,3.72186,-0.00330756,1.25892,0.0556598,-2.86371,0.0555903,0.00278079,0.158752,0.179063,0.00996664,2,1.58866,3.72186
2,1,Potentiostatic EIS,27.9983,3.72184,-0.00308597,0.999998,0.0558924,-2.67111,0.0558316,0.00260474,0.15035,0.178418,0.00997219,2,2,3.72184
2,1,Potentiostatic EIS,32.5932,3.72184,-0.0031258,0.794327,0.0560159,-2.55841,0.0559601,0.00250043,0.161997,0.178109,0.00997692,2,2.51785,3.72184
2,1,Potentiostatic EIS,38.3732,3.72184,-0.00321218,0.630956,0.0561161,-2.53953,0.056061,0.00248643,0.218607,0.177753,0.00997478,2,3.16979,3.72184
2,1,Potentiostatic EIS,45.648,3.72184,-0.00228597,0.501186,0.0564059,-2.53416,0.0563507,0.00249399,0.203059,0.176662,0.00996477,2,3.99054,3.72184
2,1,Potentiostatic EIS,52.9378,3.72184,-0.00241937,0.5,0.056278,-2.58295,0.0562208,0.00253621,0.207401,0.177202,0.00997258,2,4,3.72184