Folder: feature-extraction-paper-2024/Data/P180/P180_03/EIS_04_P180_03_3

Note: README.md
# feature-extraction-paper-2024
Repository for code used and referenced in 2024 feature extraction paper

File: 2_EIS_04_P180_03_3 20230822 150302.csv
Step number,Repeats,Step name,Elapsed Time  (s),DC Working Electrode (V),DC Current (A),Frequency (Hz),|Z| (Ohms),Phase (deg),Z' (Ohms),-Z" (Ohms),THD (%),Amplitude (A),Amplitude (V),No of Cycles,Duration of Each Frequency (s),IR Compensated DC Working Electrode (V)
2,1,Potentiostatic EIS,0,3.56867,-0.00857864,1000000,3.21229,88.5715,0.0800809,-3.21129,0.932656,0.00305554,0.00981535,1430,0.00143,3.56867
2,1,Potentiostatic EIS,0.226798,3.56861,-0.00965559,794328,2.56975,88.1458,0.0831463,-2.56841,0.945337,0.00385627,0.00990985,1445,0.00181915,3.56861
2,1,Potentiostatic EIS,0.464678,3.56859,-0.00995682,630957.375,2.04614,87.7511,0.0802901,-2.04456,0.93869,0.00479011,0.00980127,1355,0.00214753,3.56859
2,1,Potentiostatic EIS,0.735488,3.56855,-0.0108337,501187.25,1.63231,87.8367,0.0616152,-1.63115,1.04608,0.00609073,0.00994197,1385,0.00276344,3.56855
2,1,Potentiostatic EIS,1.01629,3.56853,-0.0113521,398107,1.30205,87.1195,0.0654313,-1.30041,0.880602,0.00764701,0.00995684,1400,0.00351664,3.56853
2,1,Potentiostatic EIS,1.3147,3.56848,-0.0120888,316228,1.03678,86.7526,0.0587318,-1.03512,1.00075,0.00956632,0.00991823,1370,0.00433232,3.56848
2,1,Potentiostatic EIS,1.7082,3.56842,-0.0128379,251189,0.833207,86.1457,0.0560075,-0.831323,1.09059,0.0119342,0.00994362,1340,0.00533464,3.56842
2,1,Potentiostatic EIS,2.12097,3.56835,-0.0142219,199526,0.662041,85.8972,0.0473666,-0.660344,1.2326,0.0149932,0.00992618,1355,0.00679109,3.56835
2,1,Potentiostatic EIS,2.5839,3.56833,-0.0147084,158489,0.531378,85.0248,0.0460833,-0.529376,1.42551,0.018737,0.00995644,1360,0.00858102,3.56833
2,1,Potentiostatic EIS,3.20868,3.56823,-0.0164215,125893,0.426055,84.3558,0.0419028,-0.423989,1.45954,0.023422,0.00997911,1370,0.0108823,3.56823
2,1,Potentiostatic EIS,3.83043,3.56817,-0.0172342,100000,0.339826,83.611,0.037815,-0.337716,1.65277,0.0292978,0.0099562,1370,0.0137,3.56817
2,1,Potentiostatic EIS,4.50485,3.56811,-0.0182965,79432.8,0.273537,82.3819,0.0362629,-0.271123,2.08875,0.0363536,0.00994407,1365,0.0171843,3.56811
2,1,Potentiostatic EIS,4.75757,3.56802,-0.0199083,63095.7,0.21915,81.2726,0.0332522,-0.216612,1.80619,0.0455541,0.00998317,1290,0.0204451,3.56802
2,1,Potentiostatic EIS,5.01039,3.56799,-0.0205109,50118.75,0.176276,79.6756,0.0315924,-0.173422,1.93371,0.0557114,0.00982058,1025,0.0204514,3.56799
2,1,Potentiostatic EIS,5.3661,3.56796,-0.0205982,39810.7,0.142474,77.9753,0.029682,-0.139348,1.99229,0.0682893,0.00972956,815,0.0204719,3.56796
2,1,Potentiostatic EIS,5.70901,3.56837,-0.0111817,31622.8,0.11606,75.6604,0.0287443,-0.112444,4.60249,0.0837021,0.00971573,645,0.0203967,3.56837
2,1,Potentiostatic EIS,5.94006,3.56878,-0.00112911,25118.9,0.094089,73.1294,0.0273057,-0.0900396,6.10943,0.107062,0.0100734,510,0.0203034,3.56878
2,1,Potentiostatic EIS,6.16461,3.56881,-0.000703515,19952.6,0.0765613,69.9833,0.0262064,-0.0719365,6.75243,0.131359,0.0100572,405,0.0202981,3.56881
2,1,Potentiostatic EIS,6.3972,3.56885,-0.000284361,15848.9,0.0624985,66.3659,0.0250553,-0.0572564,7.23998,0.159972,0.00999799,320,0.0201906,3.56885
2,1,Potentiostatic EIS,6.60879,3.56888,0.000614527,12589.2,0.0521456,61.9781,0.0244984,-0.0460325,7.25423,0.187778,0.00979237,255,0.0202554,3.56888
2,1,Potentiostatic EIS,6.9145,3.5688,0.000443866,9999.98,0.044009,56.9978,0.0239704,-0.0369082,3.52028,0.227127,0.00999563,307,0.0307001,3.5688
2,1,Potentiostatic EIS,7.12535,3.56879,0.000202885,7943.27,0.0378292,51.8094,0.023389,-0.0297322,4.27711,0.274398,0.0103802,244,0.0307178,3.56879
2,1,Potentiostatic EIS,7.33901,3.56881,0.000609482,6309.57,0.032222,46.057,0.0223602,-0.0232008,4.8535,0.327719,0.0105597,193,0.0305885,3.56881
2,1,Potentiostatic EIS,7.55006,3.56883,0.000800107,5011.87,0.0288032,38.0258,0.0226892,-0.0177432,4.96962,0.360834,0.0103932,153,0.0305276,3.56883
2,1,Potentiostatic EIS,7.76072,3.56886,0.00149017,3981.07,0.026773,31.2088,0.0228985,-0.0138727,4.74147,0.382095,0.0102298,122,0.0306451,3.56886
2,1,Potentiostatic EIS,7.92991,3.56888,0.00192292,3162.27,0.0253576,25.0228,0.0229775,-0.0107257,4.50989,0.354019,0.00897707,97,0.0306742,3.56888
2,1,Potentiostatic EIS,8.09811,3.56886,0.00165832,2511.88,0.0245029,19.5478,0.0230906,-0.0081985,3.95162,0.428541,0.0105005,77,0.0306543,3.56886
2,1,Potentiostatic EIS,8.26891,3.56888,0.00203386,1995.26,0.0239901,14.8268,0.0231913,-0.00613903,3.47158,0.429345,0.0103,61,0.0305725,3.56888
2,1,Potentiostatic EIS,8.43629,3.5689,0.00237407,1584.89,0.0237425,10.7304,0.0233273,-0.00442057,3.05535,0.426898,0.0101356,48,0.030286,3.5689
2,1,Potentiostatic EIS,8.55944,3.5689,0.00252103,1258.92,0.0236579,7.32348,0.0234649,-0.0030157,2.80155,0.390283,0.00923329,38,0.0301845,3.5689
2,1,Potentiostatic EIS,8.68168,3.56892,0.00273606,999.999,0.0237325,4.44518,0.0236611,-0.00183939,2.50173,0.434643,0.0103151,30,0.03,3.56892
2,1,Potentiostatic EIS,8.80512,3.56891,0.00245892,794.328,0.0238898,2.00329,0.0238752,-0.000835111,2.30597,0.425467,0.0101643,24,0.0302142,3.56891
2,1,Potentiostatic EIS,8.93052,3.56892,0.00266552,630.956,0.0241559,-0.129637,0.0241559,5.46551e-05,2.13936,0.417931,0.0100955,19,0.030113,3.56892
2,1,Potentiostatic EIS,9.05366,3.56892,0.00317634,501.187,0.0244525,-1.95749,0.0244383,0.000835252,2.05739,0.410803,0.0100452,15,0.029929,3.56892
2,1,Potentiostatic EIS,9.13435,3.56892,0.0030387,398.107,0.0248499,-3.59595,0.0248009,0.00155859,2.0109,0.348292,0.00865501,12,0.0301427,3.56892
2,1,Potentiostatic EIS,9.21315,3.56892,0.00303005,316.228,0.0253271,-5.10839,0.0252265,0.00225513,1.85545,0.363376,0.00920326,9,0.0284605,3.56892
2,1,Potentiostatic EIS,9.29534,3.56892,0.00335311,251.189,0.0258954,-6.46672,0.0257306,0.0029165,1.70141,0.36908,0.00955747,8,0.0318486,3.56892
2,1,Potentiostatic EIS,9.38476,3.56893,0.00343838,199.526,0.0265656,-7.61368,0.0263314,0.00351976,1.54376,0.367766,0.00976992,8,0.0400951,3.56893
2,1,Potentiostatic EIS,9.4851,3.56893,0.00337319,158.489,0.0273294,-8.6056,0.0270217,0.00408935,1.33905,0.361984,0.00989282,8,0.0504766,3.56893
2,1,Potentiostatic EIS,9.59712,3.56893,0.00330984,125.892,0.0281807,-9.43192,0.0277998,0.00461814,1.13237,0.353009,0.00994806,8,0.0635464,3.56893
2,1,Potentiostatic EIS,9.72761,3.56892,0.00337721,100,0.0291478,-10.0187,0.0287033,0.00507083,0.942258,0.342159,0.00997317,8,0.08,3.56892
2,1,Potentiostatic EIS,9.87905,3.56892,0.00306854,79.4327,0.0301639,-10.3206,0.0296759,0.00540406,0.790995,0.330591,0.00997192,8,0.100714,3.56892
2,1,Potentiostatic EIS,10.0592,3.56891,0.0028681,63.0956,0.0312101,-10.3982,0.0306975,0.00563305,0.632104,0.319305,0.00996553,8,0.126792,3.56891
2,1,Potentiostatic EIS,10.2743,3.56893,0.00353459,50.1186,0.0322616,-10.3439,0.0317373,0.00579273,0.530442,0.303291,0.00978463,8,0.159621,3.56893
2,1,Potentiostatic EIS,10.5334,3.56891,0.00267687,39.8107,0.0332902,-10.051,0.0327793,0.00580993,0.418625,0.294605,0.00980746,8,0.200951,3.56891
2,1,Potentiostatic EIS,10.676,3.56891,0.0026976,31.6228,0.0343128,-9.65817,0.0338264,0.00575664,0.334561,0.288978,0.00991556,2,0.0632456,3.56891
2,1,Potentiostatic EIS,10.8379,3.56892,0.00246861,25.1188,0.0352448,-9.2383,0.0347877,0.00565824,0.275291,0.274077,0.00965973,2,0.0796217,3.56892
2,1,Potentiostatic EIS,11.0377,3.56892,0.00244176,19.9526,0.0361444,-8.71793,0.0357268,0.00547842,0.263288,0.269886,0.00975478,2,0.100238,3.56892
2,1,Potentiostatic EIS,11.2848,3.56892,0.00230774,15.8489,0.0369916,-8.12199,0.0366205,0.00522621,0.232803,0.265708,0.00982898,2,0.126192,3.56892
2,1,Potentiostatic EIS,11.5915,3.56892,0.00243398,12.5892,0.0377998,-7.52889,0.0374739,0.00495276,0.212134,0.261279,0.0098763,2,0.158866,3.56892
2,1,Potentiostatic EIS,11.9729,3.56891,0.00209402,9.99998,0.0385318,-6.90578,0.0382522,0.00463295,0.241258,0.257114,0.00990705,2,0.2,3.56891
2,1,Potentiostatic EIS,12.4478,3.56892,0.00212634,7.94328,0.0391894,-6.25614,0.0389561,0.00427061,0.198644,0.253084,0.00991824,2,0.251785,3.56892
2,1,Potentiostatic EIS,13.0409,3.56892,0.00188084,6.30957,0.0397636,-5.63909,0.0395712,0.00390725,0.194074,0.249873,0.00993587,2,0.316979,3.56892
2,1,Potentiostatic EIS,13.7839,3.56893,0.00189194,5.01186,0.0402432,-5.02765,0.0400884,0.00352677,0.175932,0.247059,0.00994244,2,0.399053,3.56893
2,1,Potentiostatic EIS,14.7112,3.56893,0.00180644,3.98106,0.0406561,-4.48488,0.0405316,0.00317915,0.186188,0.244636,0.00994595,2,0.502378,3.56893
2,1,Potentiostatic EIS,15.8761,3.56893,0.00163503,3.16227,0.0409844,-4.01848,0.0408836,0.00287211,0.196074,0.242913,0.00995564,2,0.632458,3.56893
2,1,Potentiostatic EIS,17.3386,3.56893,0.00121536,2.51188,0.0412427,-3.60892,0.0411609,0.00259606,0.199909,0.241388,0.00995548,2,0.796216,3.56893
2,1,Potentiostatic EIS,19.1778,3.56893,0.00126851,1.99526,0.041485,-3.33151,0.0414149,0.00241082,0.174719,0.2401,0.00996053,2,1.00238,3.56893
2,1,Potentiostatic EIS,21.4871,3.56893,0.00100305,1.58489,0.0416547,-3.1065,0.0415935,0.00225736,0.175804,0.238969,0.00995418,2,1.26192,3.56893
2,1,Potentiostatic EIS,24.3913,3.56894,0.00044681,1.25892,0.0418616,-2.98913,0.0418046,0.00218294,0.18162,0.237821,0.00995557,2,1.58866,3.56894
2,1,Potentiostatic EIS,28.0432,3.56893,0.000714251,0.999998,0.0420416,-2.93623,0.0419864,0.00215356,0.181288,0.236731,0.00995252,2,2,3.56893
2,1,Potentiostatic EIS,32.638,3.56893,0.000488838,0.794327,0.0421909,-2.98276,0.0421337,0.00219542,0.174798,0.236007,0.00995735,2,2.51785,3.56893
2,1,Potentiostatic EIS,38.4174,3.56894,-0.000192725,0.630956,0.0423763,-3.11606,0.0423136,0.00230352,0.184697,0.235028,0.00995963,2,3.16979,3.56894
2,1,Potentiostatic EIS,45.6916,3.56894,0.00052669,0.501186,0.0425475,-3.31092,0.0424765,0.0024573,0.21057,0.233971,0.00995486,2,3.99054,3.56894
2,1,Potentiostatic EIS,52.9809,3.56895,0.000366681,0.5,0.0425419,-3.31299,0.0424708,0.00245851,0.198243,0.234247,0.00996531,2,4,3.56895