Folder: feature-extraction-paper-2024/Data/P180/P180_03/EIS_02_P180_03_5

Note: README.md
# feature-extraction-paper-2024
Repository for code used and referenced in 2024 feature extraction paper

File: 2_EIS_02_P180_03_5 20230821 143927.csv
Step number,Repeats,Step name,Elapsed Time  (s),DC Working Electrode (V),DC Current (A),Frequency (Hz),|Z| (Ohms),Phase (deg),Z' (Ohms),-Z" (Ohms),THD (%),Amplitude (A),Amplitude (V),No of Cycles,Duration of Each Frequency (s),IR Compensated DC Working Electrode (V)
2,1,Potentiostatic EIS,0,3.71943,-0.0134665,1000000,3.45855,87.7988,0.132838,-3.456,0.964507,0.00286873,0.00992161,1430,0.00143,3.71943
2,1,Potentiostatic EIS,0.23181,3.71938,-0.014177,794328,2.77863,87.4892,0.121724,-2.77596,1.16385,0.00356712,0.00991184,1445,0.00181915,3.71938
2,1,Potentiostatic EIS,0.476136,3.71936,-0.0144303,630957.375,2.21736,86.8903,0.120287,-2.21409,1.15351,0.00446182,0.00989331,1355,0.00214753,3.71936
2,1,Potentiostatic EIS,0.751279,3.71931,-0.0150518,501187.25,1.76996,86.7827,0.0993339,-1.76717,1.16426,0.00563719,0.00997769,1385,0.00276344,3.71931
2,1,Potentiostatic EIS,1.0316,3.71928,-0.0153848,398107,1.41612,86.018,0.0983409,-1.4127,1.02175,0.00703754,0.00996603,1400,0.00351664,3.71928
2,1,Potentiostatic EIS,1.32913,3.71925,-0.0156262,316228,1.12631,85.5345,0.0876935,-1.12289,1.1992,0.00880812,0.00992071,1370,0.00433232,3.71925
2,1,Potentiostatic EIS,1.65985,3.7192,-0.0162735,251189,0.907612,84.6667,0.0843614,-0.903682,1.15713,0.0110147,0.00999705,1340,0.00533464,3.7192
2,1,Potentiostatic EIS,2.20258,3.71916,-0.016636,199526,0.723983,84.4142,0.0704704,-0.720545,1.35576,0.0134426,0.00973251,1355,0.00679109,3.71916
2,1,Potentiostatic EIS,2.66255,3.71914,-0.0169485,158489,0.584033,83.4317,0.066806,-0.5802,1.42126,0.0170509,0.00995829,1360,0.00858102,3.71914
2,1,Potentiostatic EIS,3.19107,3.71908,-0.0176686,125893,0.47051,82.445,0.0618615,-0.466425,1.43658,0.0211937,0.00997187,1370,0.0108823,3.71908
2,1,Potentiostatic EIS,4.07328,3.719,-0.0185676,100000,0.376666,81.3175,0.0568613,-0.372349,1.6309,0.0264313,0.00995578,1370,0.0137,3.719
2,1,Potentiostatic EIS,4.74009,3.71895,-0.0189971,79432.8,0.30411,80.0134,0.0527381,-0.299502,1.88389,0.0327854,0.00997037,1365,0.0171843,3.71895
2,1,Potentiostatic EIS,4.98719,3.71887,-0.0203011,63095.7,0.245296,78.7083,0.0480301,-0.240548,1.61263,0.0406572,0.00997311,1290,0.0204451,3.71887
2,1,Potentiostatic EIS,5.2375,3.71882,-0.0213495,50118.75,0.196667,76.8553,0.0447241,-0.191514,1.77468,0.0504468,0.00992172,1025,0.0204514,3.71882
2,1,Potentiostatic EIS,5.49275,3.71882,-0.0210101,39810.7,0.161263,74.591,0.0428486,-0.155466,1.82275,0.0616953,0.00994912,815,0.0204719,3.71882
2,1,Potentiostatic EIS,5.83642,3.7188,-0.0202112,31622.8,0.132017,71.7871,0.0412616,-0.125403,1.83695,0.0759387,0.0100251,645,0.0203967,3.7188
2,1,Potentiostatic EIS,6.15837,3.71958,-0.0073274,25118.9,0.108368,68.6694,0.0394185,-0.100944,5.17062,0.0927299,0.0100489,510,0.0203034,3.71958
2,1,Potentiostatic EIS,6.36037,3.71963,-0.00651054,19952.6,0.0892856,65.1193,0.0375651,-0.0809986,5.7642,0.110517,0.00986738,405,0.0202981,3.71963
2,1,Potentiostatic EIS,6.56499,3.71962,-0.00644243,15848.9,0.0739611,61.1633,0.0356726,-0.0647898,6.10533,0.134307,0.00993351,320,0.0201906,3.71962
2,1,Potentiostatic EIS,6.77395,3.71963,-0.0064151,12589.2,0.0626845,56.1306,0.0349342,-0.0520476,6.44262,0.160804,0.0100803,255,0.0202554,3.71963
2,1,Potentiostatic EIS,7.08424,3.71962,-0.00591279,9999.98,0.0540089,50.7678,0.0341587,-0.0418348,3.15533,0.185195,0.0100022,307,0.0307001,3.71962
2,1,Potentiostatic EIS,7.29512,3.71964,-0.00555674,7943.27,0.0473981,45.3573,0.0333059,-0.0337239,3.86316,0.220926,0.0104715,244,0.0307178,3.71964
2,1,Potentiostatic EIS,7.50606,3.71965,-0.00535356,6309.57,0.0414533,39.2728,0.0320907,-0.0262405,4.40253,0.249251,0.0103323,193,0.0305885,3.71965
2,1,Potentiostatic EIS,7.72044,3.71967,-0.00501499,5011.87,0.038131,31.9864,0.0323417,-0.0201986,4.44742,0.266899,0.0101771,153,0.0305276,3.71967
2,1,Potentiostatic EIS,7.88937,3.71967,-0.00493727,3981.07,0.0360932,25.7586,0.0325067,-0.0156854,4.27448,0.272085,0.00982043,122,0.0306451,3.71967
2,1,Potentiostatic EIS,8.05705,3.71968,-0.00482093,3162.27,0.0347676,20.4282,0.0325811,-0.012135,3.92498,0.300992,0.0104648,97,0.0306742,3.71968
2,1,Potentiostatic EIS,8.2257,3.71969,-0.0045694,2511.88,0.0339346,15.7307,0.0326637,-0.00920024,3.49419,0.302438,0.0102631,77,0.0306543,3.71969
2,1,Potentiostatic EIS,8.34972,3.71971,-0.00448879,1995.26,0.033509,11.7372,0.0328084,-0.00681651,3.15403,0.25401,0.00851164,61,0.0305725,3.71971
2,1,Potentiostatic EIS,8.47422,3.7197,-0.00448653,1584.89,0.033352,8.33727,0.0329995,-0.00483604,2.89086,0.308445,0.0102873,48,0.030286,3.7197
2,1,Potentiostatic EIS,8.59857,3.71972,-0.00426208,1258.92,0.0333871,5.62237,0.0332265,-0.00327098,2.60808,0.308554,0.0103017,38,0.0301845,3.71972
2,1,Potentiostatic EIS,8.72276,3.71972,-0.00415293,999.999,0.0335316,3.31109,0.0334757,-0.0019367,2.399,0.303074,0.0101626,30,0.03,3.71972
2,1,Potentiostatic EIS,8.84697,3.71972,-0.00422755,794.328,0.0338117,1.43245,0.0338011,-0.000845237,2.28211,0.298483,0.0100922,24,0.0302142,3.71972
2,1,Potentiostatic EIS,8.97121,3.71972,-0.0041745,630.956,0.0341057,-0.188588,0.0341055,0.000112258,2.16535,0.294352,0.0100391,19,0.030113,3.71972
2,1,Potentiostatic EIS,9.05068,3.71972,-0.00407535,501.187,0.0344849,-1.61596,0.0344712,0.000972479,2.05277,0.247266,0.00852693,15,0.029929,3.71972
2,1,Potentiostatic EIS,9.13014,3.71971,-0.00389851,398.107,0.0349169,-2.83857,0.034874,0.00172916,1.89595,0.259902,0.00907497,12,0.0301427,3.71971
2,1,Potentiostatic EIS,9.20961,3.71971,-0.0037353,316.228,0.0354047,-4.00699,0.0353181,0.00247401,1.70069,0.266856,0.00944796,9,0.0284605,3.71971
2,1,Potentiostatic EIS,9.29122,3.71972,-0.00358881,251.189,0.0359969,-5.07036,0.0358561,0.00318137,1.50074,0.269032,0.00968434,8,0.0318486,3.71972
2,1,Potentiostatic EIS,9.38062,3.71971,-0.00351853,199.526,0.0366853,-6.00979,0.0364837,0.00384089,1.28842,0.26785,0.00982616,8,0.0400951,3.71971
2,1,Potentiostatic EIS,9.47988,3.71972,-0.00344486,158.489,0.0374336,-6.89166,0.0371631,0.00449174,1.08621,0.264638,0.00990636,8,0.0504766,3.71972
2,1,Potentiostatic EIS,9.59134,3.71973,-0.00366352,125.892,0.0383089,-7.72528,0.0379612,0.00514961,0.944331,0.259778,0.0099518,8,0.0635464,3.71973
2,1,Potentiostatic EIS,9.72055,3.71972,-0.00360378,100,0.039336,-8.42909,0.0389111,0.00576608,0.723729,0.253497,0.00997155,8,0.08,3.71972
2,1,Potentiostatic EIS,9.8727,3.71972,-0.00365548,79.4327,0.0404901,-8.95266,0.0399968,0.006301,0.593111,0.246421,0.00997761,8,0.100714,3.71972
2,1,Potentiostatic EIS,10.0512,3.71972,-0.00378347,63.0956,0.0417227,-9.28639,0.0411759,0.00673276,0.476569,0.239038,0.00997329,8,0.126792,3.71972
2,1,Potentiostatic EIS,10.2668,3.71972,-0.00323038,50.1186,0.0430171,-9.49079,0.0424283,0.00709305,0.410401,0.228358,0.0098233,8,0.159621,3.71972
2,1,Potentiostatic EIS,10.5264,3.71971,-0.00389817,39.8107,0.0443522,-9.40414,0.0437561,0.00724703,0.313509,0.221988,0.00984568,8,0.200951,3.71971
2,1,Potentiostatic EIS,10.6699,3.71972,-0.00485938,31.6228,0.0455993,-9.28091,0.0450024,0.00735402,0.289255,0.217796,0.00993143,2,0.0632456,3.71972
2,1,Potentiostatic EIS,10.8326,3.71972,-0.00407135,25.1188,0.0469048,-8.87503,0.0463432,0.00723646,0.239879,0.206417,0.0096818,2,0.0796217,3.71972
2,1,Potentiostatic EIS,11.0327,3.71971,-0.00408463,19.9526,0.0481215,-8.46555,0.0475972,0.0070842,0.195828,0.20345,0.00979034,2,0.100238,3.71971
2,1,Potentiostatic EIS,11.2796,3.71971,-0.0041096,15.8489,0.0492332,-8.03957,0.0487493,0.00688561,0.199822,0.199988,0.009846,2,0.126192,3.71971
2,1,Potentiostatic EIS,11.5861,3.71972,-0.00404426,12.5892,0.0502934,-7.53208,0.0498594,0.00659252,0.188468,0.196642,0.00988975,2,0.158866,3.71972
2,1,Potentiostatic EIS,11.9669,3.71973,-0.00401776,9.99998,0.0512759,-7.00901,0.0508927,0.00625696,0.174921,0.193444,0.009919,2,0.2,3.71973
2,1,Potentiostatic EIS,12.4407,3.71972,-0.00403565,7.94328,0.0521924,-6.48832,0.0518581,0.00589777,0.185858,0.190505,0.00994291,2,0.251785,3.71972
2,1,Potentiostatic EIS,13.0336,3.71972,-0.00412874,6.30957,0.0530083,-5.9156,0.0527261,0.00546322,0.175571,0.187603,0.00994454,2,0.316979,3.71972
2,1,Potentiostatic EIS,13.77,3.71973,-0.00397332,5.01186,0.0537648,-5.35734,0.0535299,0.00501986,0.152441,0.185314,0.00996336,2,0.399053,3.71973
2,1,Potentiostatic EIS,14.6968,3.71972,-0.00405085,3.98106,0.0544052,-4.78602,0.0542155,0.00453927,0.167323,0.183246,0.00996952,2,0.502378,3.71972
2,1,Potentiostatic EIS,15.8617,3.71972,-0.00409303,3.16227,0.0549527,-4.25272,0.0548014,0.00407506,0.144426,0.181349,0.00996558,2,0.632458,3.71972
2,1,Potentiostatic EIS,17.3246,3.71973,-0.00388771,2.51188,0.0553573,-3.77924,0.0552369,0.00364873,0.153278,0.180127,0.00997134,2,0.796216,3.71973
2,1,Potentiostatic EIS,19.1631,3.71972,-0.0038596,1.99526,0.0557071,-3.36833,0.0556109,0.00327305,0.151082,0.179004,0.00997179,2,1.00238,3.71972
2,1,Potentiostatic EIS,21.4735,3.71972,-0.00401943,1.58489,0.0560337,-3.01732,0.055956,0.00294949,0.179301,0.178049,0.00997671,2,1.26192,3.71972
2,1,Potentiostatic EIS,24.3783,3.71973,-0.00366532,1.25892,0.0562634,-2.78763,0.0561968,0.00273632,0.153832,0.177285,0.00997467,2,1.58866,3.71973
2,1,Potentiostatic EIS,28.0304,3.71972,-0.00350091,0.999998,0.0567705,-2.5745,0.0567132,0.00255004,0.162295,0.175743,0.00997686,2,2,3.71972
2,1,Potentiostatic EIS,32.6246,3.71973,-0.00351225,0.794327,0.0570716,-2.47334,0.0570184,0.00246289,0.158791,0.174619,0.00996578,2,2.51785,3.71973
2,1,Potentiostatic EIS,38.4039,3.71973,-0.00308994,0.630956,0.0569997,-2.45507,0.0569474,0.00244164,0.140066,0.174946,0.00997184,2,3.16979,3.71973
2,1,Potentiostatic EIS,45.6784,3.71974,-0.00288135,0.501186,0.0570273,-2.5135,0.0569725,0.00250092,0.147907,0.174948,0.00997681,2,3.99054,3.71974
2,1,Potentiostatic EIS,52.9688,3.71974,-0.00277905,0.5,0.0569674,-2.53094,0.0569118,0.00251562,0.148889,0.175161,0.00997848,2,4,3.71974