Folder: feature-extraction-paper-2024/Data/P180/P180_03/EIS_04_P180_03_4

Note: README.md
# feature-extraction-paper-2024
Repository for code used and referenced in 2024 feature extraction paper

File: 2_EIS_04_P180_03_4 20230822 150638.csv
Step number,Repeats,Step name,Elapsed Time  (s),DC Working Electrode (V),DC Current (A),Frequency (Hz),|Z| (Ohms),Phase (deg),Z' (Ohms),-Z" (Ohms),THD (%),Amplitude (A),Amplitude (V),No of Cycles,Duration of Each Frequency (s),IR Compensated DC Working Electrode (V)
2,1,Potentiostatic EIS,0,3.52369,-0.0115055,1000000,2.03918,87.4325,0.0913488,-2.03713,0.879794,0.0049451,0.0100839,1430,0.00143,3.52369
2,1,Potentiostatic EIS,0.248266,3.52362,-0.0129159,794328,1.63482,86.9837,0.0860246,-1.63256,1.26664,0.00612165,0.0100078,1445,0.00181915,3.52362
2,1,Potentiostatic EIS,0.51717,3.52356,-0.0139461,630957.375,1.30589,86.4567,0.0807077,-1.30339,1.11201,0.00764352,0.00998165,1355,0.00214753,3.52356
2,1,Potentiostatic EIS,0.794881,3.52349,-0.0152032,501187.25,1.04675,86.4443,0.0649179,-1.04474,1.19179,0.00957207,0.0100196,1385,0.00276344,3.52349
2,1,Potentiostatic EIS,1.08268,3.52343,-0.0165083,398107,0.836137,85.5836,0.0643863,-0.833654,1.3001,0.0116586,0.00974811,1400,0.00351664,3.52343
2,1,Potentiostatic EIS,1.40957,3.5234,-0.0170154,316228,0.668246,85.1388,0.0566281,-0.665843,1.41383,0.014881,0.00994417,1370,0.00433232,3.5234
2,1,Potentiostatic EIS,1.77299,3.52332,-0.0186487,251189,0.536313,84.3317,0.052971,-0.533691,1.56165,0.0185931,0.00997173,1340,0.00533464,3.52332
2,1,Potentiostatic EIS,2.3523,3.52322,-0.0200073,199526,0.427906,83.9966,0.0447537,-0.425559,1.64178,0.023182,0.00991971,1355,0.00679109,3.52322
2,1,Potentiostatic EIS,2.81846,3.52314,-0.0216547,158489,0.34469,82.9018,0.0425935,-0.342048,1.61439,0.028428,0.00979899,1360,0.00858102,3.52314
2,1,Potentiostatic EIS,3.39392,3.52301,-0.0239379,125893,0.277644,81.9006,0.0391176,-0.274874,1.84208,0.0359361,0.00997747,1370,0.0108823,3.52301
2,1,Potentiostatic EIS,4.06661,3.52291,-0.025613,100000,0.222413,80.7344,0.0358108,-0.219511,1.87908,0.0447941,0.0099628,1370,0.0137,3.52291
2,1,Potentiostatic EIS,4.80221,3.52281,-0.0269008,79432.8,0.179656,79.0477,0.0341331,-0.176384,2.80089,0.0556955,0.010006,1365,0.0171843,3.52281
2,1,Potentiostatic EIS,5.19664,3.52337,-0.0127798,63095.7,0.144738,77.4568,0.0314335,-0.141283,3.84328,0.0688359,0.00996319,1290,0.0204451,3.52337
2,1,Potentiostatic EIS,5.43464,3.52335,-0.0132154,50118.75,0.117526,75.3952,0.0296341,-0.113728,4.60448,0.085339,0.0100295,1025,0.0204514,3.52335
2,1,Potentiostatic EIS,5.66872,3.52336,-0.0130432,39810.7,0.0956203,72.6746,0.0284755,-0.0912819,5.47051,0.105155,0.010055,815,0.0204719,3.52336
2,1,Potentiostatic EIS,5.89191,3.52334,-0.0131536,31622.8,0.0786946,69.5359,0.0275132,-0.0737283,6.01047,0.128448,0.0101082,645,0.0203967,3.52334
2,1,Potentiostatic EIS,6.12027,3.52371,-0.00465297,25118.9,0.0649104,66.2061,0.026188,-0.0593932,6.47794,0.156223,0.0101408,510,0.0203034,3.52371
2,1,Potentiostatic EIS,6.34728,3.52377,-0.0029677,19952.6,0.0538055,61.9913,0.0252674,-0.0475036,6.9354,0.188245,0.0101289,405,0.0202981,3.52377
2,1,Potentiostatic EIS,6.57615,3.52378,-0.00248195,15848.9,0.0449992,57.1799,0.0243897,-0.0378162,6.98297,0.223796,0.0100707,320,0.0201906,3.52378
2,1,Potentiostatic EIS,6.81669,3.52384,-0.0014458,12589.2,0.0387021,51.7807,0.023944,-0.0304063,6.6903,0.257002,0.00994653,255,0.0202554,3.52384
2,1,Potentiostatic EIS,7.1252,3.52392,-0.0013286,9999.98,0.0338429,45.9769,0.0235191,-0.0243351,3.08479,0.29481,0.00997724,307,0.0307001,3.52392
2,1,Potentiostatic EIS,7.33631,3.52396,-0.000628076,7943.27,0.0302209,40.3969,0.0230154,-0.0195855,3.75285,0.287807,0.00869777,244,0.0307178,3.52396
2,1,Potentiostatic EIS,7.55089,3.52397,-0.000549087,6309.57,0.0266963,34.3188,0.0220489,-0.0150513,4.101,0.372527,0.0099451,193,0.0305885,3.52397
2,1,Potentiostatic EIS,7.76691,3.524,-7.54305e-05,5011.87,0.0251117,26.5111,0.0224711,-0.0112091,4.06398,0.415849,0.0104427,153,0.0305276,3.524
2,1,Potentiostatic EIS,7.97876,3.524,0.00022625,3981.07,0.0243438,20.5903,0.0227887,-0.00856129,3.86277,0.421592,0.0102632,122,0.0306451,3.524
2,1,Potentiostatic EIS,8.14664,3.52404,0.00115888,3162.27,0.0238249,15.7246,0.0229333,-0.00645688,3.69753,0.371482,0.00885052,97,0.0306742,3.52404
2,1,Potentiostatic EIS,8.31524,3.52405,0.0014001,2511.88,0.0235915,11.5884,0.0231106,-0.00473907,3.28279,0.445098,0.0105005,77,0.0306543,3.52405
2,1,Potentiostatic EIS,8.48295,3.52404,0.00115999,1995.26,0.0235266,8.0415,0.0232953,-0.00329115,2.98365,0.436575,0.0102711,61,0.0305725,3.52404
2,1,Potentiostatic EIS,8.65108,3.52406,0.00143771,1584.89,0.0235984,5.19638,0.0235014,-0.0021373,2.66394,0.428205,0.0101049,48,0.030286,3.52406
2,1,Potentiostatic EIS,8.77499,3.52406,0.00152107,1258.92,0.0237645,2.82859,0.0237355,-0.00117273,2.60395,0.405329,0.00963243,38,0.0301845,3.52406
2,1,Potentiostatic EIS,8.89796,3.52407,0.00149533,999.999,0.0239961,0.891561,0.0239932,-0.00037338,2.38802,0.428852,0.0102908,30,0.03,3.52407
2,1,Potentiostatic EIS,9.02098,3.52408,0.00209852,794.328,0.0242654,-0.730101,0.0242634,0.000309197,2.27081,0.417864,0.0101396,24,0.0302142,3.52408
2,1,Potentiostatic EIS,9.1442,3.52408,0.00190525,630.956,0.0245894,-2.19068,0.0245714,0.000939936,2.20067,0.409982,0.0100812,19,0.030113,3.52408
2,1,Potentiostatic EIS,9.26809,3.52408,0.00257454,501.187,0.0249179,-3.44537,0.0248729,0.00149749,2.11217,0.402915,0.0100398,15,0.029929,3.52408
2,1,Potentiostatic EIS,9.34854,3.52409,0.00243652,398.107,0.0253478,-4.51864,0.025269,0.00199698,2.05138,0.345789,0.00876499,12,0.0301427,3.52409
2,1,Potentiostatic EIS,9.42797,3.52409,0.00267869,316.228,0.0257883,-5.59264,0.0256656,0.0025132,1.89033,0.359167,0.0092623,9,0.0284605,3.52409
2,1,Potentiostatic EIS,9.50912,3.52409,0.0024556,251.189,0.0263061,-6.551,0.0261344,0.00300121,1.71524,0.364124,0.00957871,8,0.0318486,3.52409
2,1,Potentiostatic EIS,9.59968,3.52409,0.00273783,199.526,0.02691,-7.38692,0.0266866,0.00345979,1.54515,0.36317,0.00977291,8,0.0400951,3.52409
2,1,Potentiostatic EIS,9.7004,3.52409,0.00251786,158.489,0.0275731,-8.15214,0.0272945,0.00390993,1.31245,0.358458,0.00988381,8,0.0504766,3.52409
2,1,Potentiostatic EIS,9.81404,3.52409,0.00266089,125.892,0.0283066,-8.78819,0.0279743,0.00432474,1.13848,0.350948,0.00993413,8,0.0635464,3.52409
2,1,Potentiostatic EIS,9.94459,3.52409,0.00251957,100,0.0291425,-9.31035,0.0287585,0.00471472,0.88006,0.341632,0.00995601,8,0.08,3.52409
2,1,Potentiostatic EIS,10.0975,3.52408,0.00252942,79.4327,0.0300452,-9.60481,0.029624,0.00501308,0.765184,0.331672,0.00996514,8,0.100714,3.52408
2,1,Potentiostatic EIS,10.2763,3.52409,0.00231294,63.0956,0.0309709,-9.73102,0.0305253,0.0052348,0.629461,0.321514,0.00995759,8,0.126792,3.52409
2,1,Potentiostatic EIS,10.4902,3.5241,0.00313144,50.1186,0.0319237,-9.79722,0.0314581,0.00543219,0.519564,0.306425,0.00978224,8,0.159621,3.5241
2,1,Potentiostatic EIS,10.7498,3.52408,0.00199939,39.8107,0.0328641,-9.61751,0.0324022,0.00549061,0.419083,0.298306,0.00980356,8,0.200951,3.52408
2,1,Potentiostatic EIS,10.8936,3.52407,0.000203923,31.6228,0.0337812,-9.46134,0.0333217,0.00555303,0.342438,0.293571,0.00991733,2,0.0632456,3.52407
2,1,Potentiostatic EIS,11.0554,3.52408,0.00150566,25.1188,0.0347277,-9.01135,0.0342991,0.00543941,0.280328,0.278272,0.00966376,2,0.0796217,3.52408
2,1,Potentiostatic EIS,11.2549,3.52408,0.0014357,19.9526,0.035613,-8.61107,0.0352115,0.0053322,0.25864,0.274353,0.0097705,2,0.100238,3.52408
2,1,Potentiostatic EIS,11.5021,3.52409,0.00168319,15.8489,0.0364966,-8.16957,0.0361262,0.00518628,0.241295,0.269529,0.00983686,2,0.126192,3.52409
2,1,Potentiostatic EIS,11.8087,3.52409,0.00159778,12.5892,0.037278,-7.67011,0.0369445,0.00497546,0.193977,0.264906,0.00987515,2,0.158866,3.52409
2,1,Potentiostatic EIS,12.1903,3.52408,0.00129194,9.99998,0.0380549,-7.1122,0.0377621,0.00471168,0.209589,0.260195,0.00990172,2,0.2,3.52408
2,1,Potentiostatic EIS,12.6656,3.52409,0.00125915,7.94328,0.0387279,-6.53215,0.0384765,0.00440571,0.199997,0.256332,0.00992719,2,0.251785,3.52409
2,1,Potentiostatic EIS,13.2591,3.52409,0.000960931,6.30957,0.0393548,-5.95426,0.0391424,0.00408244,0.189158,0.252255,0.00992742,2,0.316979,3.52409
2,1,Potentiostatic EIS,13.9996,3.52409,0.00115109,5.01186,0.0399072,-5.37906,0.0397314,0.00374108,0.188092,0.249167,0.00994351,2,0.399053,3.52409
2,1,Potentiostatic EIS,14.9268,3.5241,0.0011419,3.98106,0.0403555,-4.82867,0.0402123,0.00339698,0.177956,0.246708,0.00995601,2,0.502378,3.5241
2,1,Potentiostatic EIS,16.0916,3.52409,0.000609616,3.16227,0.0407376,-4.35988,0.0406197,0.00309691,0.180564,0.244316,0.00995284,2,0.632458,3.52409
2,1,Potentiostatic EIS,17.5539,3.52409,0.000665188,2.51188,0.0410664,-3.93636,0.0409696,0.00281915,0.150694,0.242469,0.00995732,2,0.796216,3.52409
2,1,Potentiostatic EIS,19.3928,3.52408,0.000536077,1.99526,0.0413175,-3.60293,0.0412359,0.00259646,0.176185,0.240783,0.00994856,2,1.00238,3.52408
2,1,Potentiostatic EIS,21.7024,3.52409,4.03151e-05,1.58489,0.0415694,-3.35193,0.0414983,0.00243051,0.159668,0.239582,0.00995925,2,1.26192,3.52409
2,1,Potentiostatic EIS,24.6067,3.52409,0.000113983,1.25892,0.0417516,-3.2055,0.0416862,0.00233463,0.168887,0.238699,0.00996607,2,1.58866,3.52409
2,1,Potentiostatic EIS,28.2589,3.52408,0.000199061,0.999998,0.0418992,-3.12326,0.0418369,0.00228284,0.170467,0.237705,0.00995964,2,2,3.52408
2,1,Potentiostatic EIS,32.8533,3.52408,-0.000559691,0.794327,0.0420869,-3.16061,0.0420228,0.00232047,0.179575,0.236591,0.00995738,2,2.51785,3.52408
2,1,Potentiostatic EIS,38.6326,3.52408,-0.000185938,0.630956,0.0422576,-3.25822,0.0421893,0.00240176,0.162863,0.235681,0.0099593,2,3.16979,3.52408
2,1,Potentiostatic EIS,45.9069,3.52408,1.13314e-05,0.501186,0.0424267,-3.47002,0.0423489,0.00256793,0.126484,0.234797,0.00996165,2,3.99054,3.52408
2,1,Potentiostatic EIS,53.1977,3.52408,-0.000299642,0.5,0.0424044,-3.4868,0.0423259,0.00257898,0.137283,0.234839,0.00995821,2,4,3.52408