Folder: feature-extraction-paper-2024/Data/P180/P180_03/EIS_06_P180_03_5

Note: README.md
# feature-extraction-paper-2024
Repository for code used and referenced in 2024 feature extraction paper

File: 2_EIS_06_P180_03_5 20230824 143017.csv
Step number,Repeats,Step name,Elapsed Time  (s),DC Working Electrode (V),DC Current (A),Frequency (Hz),|Z| (Ohms),Phase (deg),Z' (Ohms),-Z" (Ohms),THD (%),Amplitude (A),Amplitude (V),No of Cycles,Duration of Each Frequency (s),IR Compensated DC Working Electrode (V)
2,1,Potentiostatic EIS,0,3.49425,-0.0106746,1000000,3.50071,88.149,0.113071,-3.49888,1.17527,0.00285285,0.00998717,1430,0.00143,3.49425
2,1,Potentiostatic EIS,0.23094,3.4942,-0.0112933,794328,2.79674,87.8604,0.104416,-2.79479,1.13137,0.00354799,0.00992299,1445,0.00181915,3.4942
2,1,Potentiostatic EIS,0.470828,3.49417,-0.0116964,630957.375,2.22807,87.3976,0.101167,-2.22577,1.13764,0.00443812,0.00988838,1355,0.00214753,3.49417
2,1,Potentiostatic EIS,0.741466,3.49413,-0.0122388,501187.25,1.77797,87.3849,0.0811214,-1.77612,1.14053,0.00560047,0.0099575,1385,0.00276344,3.49413
2,1,Potentiostatic EIS,1.03924,3.4941,-0.0126529,398107,1.42264,86.5483,0.0856538,-1.42006,1.2733,0.00701056,0.00997355,1400,0.00351664,3.4941
2,1,Potentiostatic EIS,1.34527,3.49407,-0.0132255,316228,1.13043,86.1181,0.076531,-1.12784,1.17742,0.00879325,0.00994026,1370,0.00433232,3.49407
2,1,Potentiostatic EIS,1.67767,3.49402,-0.0136951,251189,0.908502,85.5943,0.0697888,-0.905817,1.25693,0.01099,0.00998446,1340,0.00533464,3.49402
2,1,Potentiostatic EIS,2.05391,3.49395,-0.014916,199526,0.724708,85.2149,0.0604539,-0.722183,1.37686,0.013425,0.00972934,1355,0.00679109,3.49395
2,1,Potentiostatic EIS,2.51228,3.49392,-0.0151045,158489,0.582148,84.1791,0.0590407,-0.579147,1.47105,0.0170983,0.00995372,1360,0.00858102,3.49392
2,1,Potentiostatic EIS,3.04381,3.49384,-0.0162574,125893,0.468001,83.4716,0.0532095,-0.464966,1.52893,0.021351,0.00999233,1370,0.0108823,3.49384
2,1,Potentiostatic EIS,3.83277,3.49377,-0.0169994,100000,0.374146,82.4676,0.0490459,-0.370918,1.62162,0.026625,0.00996165,1370,0.0137,3.49377
2,1,Potentiostatic EIS,4.50182,3.49371,-0.0175959,79432.8,0.301366,81.1653,0.0462851,-0.297791,1.95313,0.0331446,0.00998871,1365,0.0171843,3.49371
2,1,Potentiostatic EIS,4.7501,3.49368,-0.0187771,63095.7,0.242113,79.7527,0.0430711,-0.238251,1.62476,0.041253,0.00998798,1290,0.0204451,3.49368
2,1,Potentiostatic EIS,5.00457,3.49363,-0.0195301,50118.75,0.196541,78.5064,0.0391625,-0.1926,1.80035,0.0501869,0.0098635,1025,0.0204514,3.49363
2,1,Potentiostatic EIS,5.26248,3.49356,-0.0199074,39810.7,0.15816,76.0033,0.0382535,-0.153465,1.84126,0.0626755,0.00991285,815,0.0204719,3.49356
2,1,Potentiostatic EIS,5.54944,3.49355,-0.0199131,31622.8,0.129015,73.3519,0.0369618,-0.123607,1.92574,0.0775673,0.0100074,645,0.0203967,3.49355
2,1,Potentiostatic EIS,5.87942,3.4944,-0.00265521,25118.9,0.105634,70.4268,0.0353885,-0.0995296,5.38572,0.0949971,0.010035,510,0.0203034,3.4944
2,1,Potentiostatic EIS,6.0862,3.49443,-0.00262126,19952.6,0.0864458,67.0751,0.0336727,-0.079618,6.00244,0.11371,0.00982984,405,0.0202981,3.49443
2,1,Potentiostatic EIS,6.2966,3.49443,-0.00192453,15848.9,0.0713662,63.1076,0.0322801,-0.0636484,6.47304,0.138606,0.00989201,320,0.0201906,3.49443
2,1,Potentiostatic EIS,6.50284,3.49445,-0.00169226,12589.2,0.0599803,58.4393,0.0313938,-0.0511084,6.62678,0.166959,0.0100143,255,0.0202554,3.49445
2,1,Potentiostatic EIS,6.80883,3.49464,-0.00150692,9999.98,0.0513649,53.0334,0.0308882,-0.0410398,3.28585,0.194852,0.0100086,307,0.0307001,3.49464
2,1,Potentiostatic EIS,7.02175,3.49466,-0.00108576,7943.27,0.0447469,47.5438,0.0302053,-0.033014,4.02173,0.235696,0.0105467,244,0.0307178,3.49466
2,1,Potentiostatic EIS,7.23491,3.49467,-0.00102287,6309.57,0.0388467,41.5274,0.0290821,-0.0257545,4.56838,0.267338,0.0103852,193,0.0305885,3.49467
2,1,Potentiostatic EIS,7.44747,3.49469,-0.000792104,5011.87,0.0354167,33.99,0.0293653,-0.0197996,4.63787,0.289365,0.0102484,153,0.0305276,3.49469
2,1,Potentiostatic EIS,7.61582,3.49471,-7.19174e-05,3981.07,0.0332667,27.5099,0.0295053,-0.015366,4.49763,0.273802,0.00910852,122,0.0306451,3.49471
2,1,Potentiostatic EIS,7.78376,3.49471,-0.000276374,3162.27,0.0319549,21.8743,0.0296543,-0.0119055,4.06122,0.329669,0.0105345,97,0.0306742,3.49471
2,1,Potentiostatic EIS,7.95278,3.49474,8.52478e-05,2511.88,0.0311062,16.8698,0.0297676,-0.00902694,3.72564,0.332362,0.0103385,77,0.0306543,3.49474
2,1,Potentiostatic EIS,8.12037,3.49474,0.00018336,1995.26,0.0306392,12.6534,0.0298951,-0.00671161,3.32057,0.331606,0.0101602,61,0.0305725,3.49474
2,1,Potentiostatic EIS,8.24515,3.49473,8.11359e-05,1584.89,0.0304983,9.12079,0.0301126,-0.00483447,2.88529,0.315973,0.00963663,48,0.030286,3.49473
2,1,Potentiostatic EIS,8.36868,3.49475,0.000288078,1258.92,0.0304892,6.21302,0.0303101,-0.0032997,2.5975,0.339569,0.0103532,38,0.0301845,3.49475
2,1,Potentiostatic EIS,8.4922,3.49475,0.00051971,999.999,0.0306162,3.76551,0.0305501,-0.00201066,2.41819,0.333207,0.0102015,30,0.03,3.49475
2,1,Potentiostatic EIS,8.61613,3.49478,0.00100599,794.328,0.0308451,1.78598,0.0308301,-0.000961321,2.22915,0.327297,0.0100955,24,0.0302142,3.49478
2,1,Potentiostatic EIS,8.74089,3.49476,0.000704287,630.956,0.0311512,0.0899267,0.0311511,-4.88923e-05,2.15151,0.322445,0.0100445,19,0.030113,3.49476
2,1,Potentiostatic EIS,8.86439,3.49476,0.000860939,501.187,0.0314972,-1.36137,0.0314884,0.000748317,2.01724,0.318387,0.0100283,15,0.029929,3.49476
2,1,Potentiostatic EIS,8.944,3.49475,0.000832882,398.107,0.0319014,-2.60782,0.0318684,0.00145149,1.92207,0.280979,0.00896363,12,0.0301427,3.49475
2,1,Potentiostatic EIS,9.02422,3.49475,0.000951606,316.228,0.0323388,-3.73906,0.03227,0.0021089,1.71514,0.289528,0.00936298,9,0.0284605,3.49475
2,1,Potentiostatic EIS,9.10514,3.49477,0.0008464,251.189,0.0329053,-4.7368,0.0327929,0.00271727,1.5592,0.292512,0.00962521,8,0.0318486,3.49477
2,1,Potentiostatic EIS,9.19429,3.49475,0.000871656,199.526,0.0335405,-5.59084,0.033381,0.00326764,1.36684,0.291837,0.00978836,8,0.0400951,3.49475
2,1,Potentiostatic EIS,9.29393,3.49478,0.00123665,158.489,0.0342249,-6.34634,0.0340151,0.00378315,1.15479,0.28869,0.00988036,8,0.0504766,3.49478
2,1,Potentiostatic EIS,9.4071,3.49477,0.00128667,125.892,0.0349712,-6.98655,0.0347115,0.00425376,0.966605,0.283784,0.00992426,8,0.0635464,3.49477
2,1,Potentiostatic EIS,9.53715,3.49478,0.00128609,100,0.0358413,-7.53249,0.035532,0.00469838,0.776842,0.277489,0.00994557,8,0.08,3.49478
2,1,Potentiostatic EIS,9.69003,3.49477,0.00130775,79.4327,0.0367731,-7.8618,0.0364275,0.00502998,0.632815,0.270778,0.00995737,8,0.100714,3.49477
2,1,Potentiostatic EIS,9.8696,3.49476,0.000888884,63.0956,0.0377447,-8.01071,0.0373764,0.00526003,0.527896,0.26385,0.00995893,8,0.126792,3.49476
2,1,Potentiostatic EIS,10.0846,3.49478,0.00138654,50.1186,0.0387247,-8.11283,0.0383372,0.00546495,0.430237,0.252439,0.00977563,8,0.159621,3.49478
2,1,Potentiostatic EIS,10.3417,3.49476,0.000666338,39.8107,0.0397039,-7.97542,0.0393199,0.00550885,0.331715,0.246989,0.00980645,8,0.200951,3.49476
2,1,Potentiostatic EIS,10.4858,3.49476,-0.000343343,31.6228,0.0406136,-7.84389,0.0402336,0.00554272,0.280353,0.244178,0.00991705,2,0.0632456,3.49476
2,1,Potentiostatic EIS,10.6476,3.49476,0.000641289,25.1188,0.0416027,-7.45176,0.0412514,0.00539552,0.282358,0.232264,0.00966277,2,0.0796217,3.49476
2,1,Potentiostatic EIS,10.8473,3.49476,0.000444047,19.9526,0.0424751,-7.12912,0.0421467,0.0052714,0.254696,0.230115,0.00977408,2,0.100238,3.49476
2,1,Potentiostatic EIS,11.0944,3.49477,0.000451233,15.8489,0.04331,-6.73975,0.0430107,0.00508284,0.215552,0.227229,0.0098413,2,0.126192,3.49477
2,1,Potentiostatic EIS,11.4009,3.49476,0.000385686,12.5892,0.0440974,-6.29105,0.0438319,0.00483215,0.193552,0.224007,0.00987814,2,0.158866,3.49476
2,1,Potentiostatic EIS,11.7824,3.49476,0.000454191,9.99998,0.0448277,-5.85635,0.0445937,0.00457398,0.194031,0.221196,0.00991572,2,0.2,3.49476
2,1,Potentiostatic EIS,12.2576,3.49477,0.000125947,7.94328,0.0454958,-5.37365,0.0452958,0.0042607,0.168102,0.218369,0.00993485,2,0.251785,3.49477
2,1,Potentiostatic EIS,12.8509,3.49478,0.000171733,6.30957,0.0460724,-4.90798,0.0459035,0.00394176,0.182563,0.215711,0.00993832,2,0.316979,3.49478
2,1,Potentiostatic EIS,13.5916,3.49478,6.73544e-05,5.01186,0.0465883,-4.45662,0.0464475,0.00362011,0.167705,0.213569,0.00994982,2,0.399053,3.49478
2,1,Potentiostatic EIS,14.5192,3.49478,0.000165929,3.98106,0.0470448,-4.02358,0.0469289,0.00330099,0.182897,0.211791,0.00996368,2,0.502378,3.49478
2,1,Potentiostatic EIS,15.6839,3.49478,-0.000280656,3.16227,0.0474099,-3.64593,0.0473139,0.00301482,0.166805,0.210058,0.00995881,2,0.632458,3.49478
2,1,Potentiostatic EIS,17.1468,3.49478,-0.000255469,2.51188,0.0477094,-3.31337,0.0476297,0.00275746,0.165061,0.208833,0.00996329,2,0.796216,3.49478
2,1,Potentiostatic EIS,18.9858,3.49478,-0.000210386,1.99526,0.0479731,-3.03325,0.0479059,0.00253852,0.172298,0.20782,0.00996978,2,1.00238,3.49478
2,1,Potentiostatic EIS,21.296,3.49477,-0.000771057,1.58489,0.0481905,-2.86201,0.0481304,0.00240619,0.142554,0.206778,0.00996475,2,1.26192,3.49477
2,1,Potentiostatic EIS,24.2002,3.49477,-0.000569053,1.25892,0.0484048,-2.77579,0.048348,0.00234413,0.17187,0.205999,0.00997131,2,1.58866,3.49477
2,1,Potentiostatic EIS,27.8519,3.49477,-0.000486162,0.999998,0.0486029,-2.73189,0.0485477,0.00231653,0.169601,0.205154,0.00997112,2,2,3.49477
2,1,Potentiostatic EIS,32.4466,3.49478,-0.0010809,0.794327,0.0487708,-2.79785,0.0487127,0.00238061,0.153342,0.204284,0.00996312,2,2.51785,3.49478
2,1,Potentiostatic EIS,38.2257,3.49477,-0.000866681,0.630956,0.0489621,-2.93465,0.0488979,0.00250671,0.184232,0.20365,0.00997113,2,3.16979,3.49477
2,1,Potentiostatic EIS,45.5007,3.49477,-0.000590614,0.501186,0.0491515,-3.1385,0.0490778,0.00269104,0.1977,0.202761,0.00996602,2,3.99054,3.49477
2,1,Potentiostatic EIS,52.7907,3.49477,-0.000875421,0.5,0.0491554,-3.14023,0.0490816,0.00269273,0.2169,0.202773,0.00996737,2,4,3.49477