Folder: feature-extraction-paper-2024/Data/P180/P180_03/EIS_02_P180_03_4

Note: README.md
# feature-extraction-paper-2024
Repository for code used and referenced in 2024 feature extraction paper

File: 2_EIS_02_P180_03_4 20230821 143524.csv
Step number,Repeats,Step name,Elapsed Time  (s),DC Working Electrode (V),DC Current (A),Frequency (Hz),|Z| (Ohms),Phase (deg),Z' (Ohms),-Z" (Ohms),THD (%),Amplitude (A),Amplitude (V),No of Cycles,Duration of Each Frequency (s),IR Compensated DC Working Electrode (V)
2,1,Potentiostatic EIS,0,3.73176,-0.0134144,1000000,1.84615,86.812,0.10267,-1.84329,0.851032,0.00543607,0.0100358,1430,0.00143,3.73176
2,1,Potentiostatic EIS,0.243309,3.73167,-0.0150372,794328,1.48538,86.2796,0.0963828,-1.48225,1.10205,0.00676994,0.010056,1445,0.00181915,3.73167
2,1,Potentiostatic EIS,0.500478,3.73162,-0.0159106,630957.375,1.18645,85.7193,0.0885591,-1.18314,0.968515,0.008408,0.00997563,1355,0.00214753,3.73162
2,1,Potentiostatic EIS,0.771475,3.73155,-0.0171309,501187.25,0.95215,85.7651,0.0703128,-0.949551,1.10383,0.010436,0.00993681,1385,0.00276344,3.73155
2,1,Potentiostatic EIS,1.08315,3.73147,-0.0184218,398107,0.763061,84.6839,0.0706976,-0.759779,1.2263,0.0130816,0.00998211,1400,0.00351664,3.73147
2,1,Potentiostatic EIS,1.41878,3.73141,-0.0193372,316228,0.608959,84.248,0.0610321,-0.605893,1.54035,0.0163201,0.00993833,1370,0.00433232,3.73141
2,1,Potentiostatic EIS,1.78042,3.73132,-0.0209595,251189,0.491543,83.27,0.0576043,-0.488156,1.48857,0.0203191,0.00998771,1340,0.00533464,3.73132
2,1,Potentiostatic EIS,2.22944,3.73122,-0.0223343,199526,0.393238,82.6734,0.0501477,-0.390027,1.68817,0.0252536,0.00993067,1355,0.00679109,3.73122
2,1,Potentiostatic EIS,2.68987,3.73112,-0.0237913,158489,0.316649,81.3584,0.0475776,-0.313054,1.65982,0.0305156,0.00966312,1360,0.00858102,3.73112
2,1,Potentiostatic EIS,3.26803,3.73099,-0.0261509,125893,0.256006,80.3013,0.0431286,-0.252347,1.92432,0.0390087,0.00998642,1370,0.0108823,3.73099
2,1,Potentiostatic EIS,3.93693,3.73089,-0.0277362,100000,0.205513,78.8319,0.0398053,-0.201621,1.95352,0.0484656,0.00996033,1370,0.0137,3.73089
2,1,Potentiostatic EIS,4.84958,3.73078,-0.0289366,79432.8,0.166884,77.0341,0.037444,-0.162629,2.65577,0.0597424,0.00997003,1365,0.0171843,3.73078
2,1,Potentiostatic EIS,5.21949,3.73141,-0.0163436,63095.7,0.13487,75.0536,0.0347849,-0.130307,4.1385,0.0738401,0.00995881,1290,0.0204451,3.73141
2,1,Potentiostatic EIS,5.43998,3.73141,-0.0162305,50118.75,0.110065,72.4836,0.0331272,-0.104961,4.87232,0.0912146,0.0100397,1025,0.0204514,3.73141
2,1,Potentiostatic EIS,5.66204,3.7314,-0.0161669,39810.7,0.0901401,69.329,0.0318196,-0.0843371,5.50672,0.111763,0.0100744,815,0.0204719,3.7314
2,1,Potentiostatic EIS,5.88284,3.7314,-0.0160269,31622.8,0.074748,65.6512,0.0308179,-0.0680993,6.06596,0.13534,0.0101166,645,0.0203967,3.7314
2,1,Potentiostatic EIS,6.10313,3.73175,-0.00926621,25118.9,0.0624946,61.6388,0.0296867,-0.0549934,6.41651,0.162365,0.0101471,510,0.0203034,3.73175
2,1,Potentiostatic EIS,6.33236,3.73179,-0.00849761,19952.6,0.0524972,57.0839,0.0285275,-0.0440697,6.71028,0.19299,0.0101315,405,0.0202981,3.73179
2,1,Potentiostatic EIS,6.55193,3.73184,-0.00737983,15848.9,0.0447051,51.7096,0.0277014,-0.0350881,6.69838,0.224913,0.0100548,320,0.0201906,3.73184
2,1,Potentiostatic EIS,6.77502,3.73188,-0.00628405,12589.2,0.0391236,46.0035,0.0271759,-0.0281448,6.62297,0.256129,0.0100206,255,0.0202554,3.73188
2,1,Potentiostatic EIS,7.08058,3.7319,-0.00623425,9999.98,0.0350283,40.1181,0.0267868,-0.022571,2.87991,0.284961,0.00998168,307,0.0307001,3.7319
2,1,Potentiostatic EIS,7.29282,3.73196,-0.00562273,7943.27,0.031953,34.7098,0.0262668,-0.0181947,3.44431,0.289706,0.00925698,244,0.0307178,3.73196
2,1,Potentiostatic EIS,7.50496,3.73196,-0.00556727,6309.57,0.0288783,28.6583,0.0253406,-0.0138496,3.73843,0.368132,0.010631,193,0.0305885,3.73196
2,1,Potentiostatic EIS,7.71706,3.73198,-0.0051542,5011.87,0.027716,21.6384,0.0257628,-0.0102202,3.73266,0.37403,0.0103666,153,0.0305276,3.73198
2,1,Potentiostatic EIS,7.93227,3.73202,-0.00416933,3981.07,0.0271909,16.5264,0.0260676,-0.00773465,3.57882,0.374309,0.0101778,122,0.0306451,3.73202
2,1,Potentiostatic EIS,8.10198,3.73203,-0.00388892,3162.27,0.0268835,12.3547,0.0262609,-0.0057521,3.3626,0.371783,0.00999481,97,0.0306742,3.73203
2,1,Potentiostatic EIS,8.271,3.73203,-0.00376966,2511.88,0.0267689,8.85577,0.0264498,-0.00412101,3.11059,0.388156,0.0103905,77,0.0306543,3.73203
2,1,Potentiostatic EIS,8.44117,3.73207,-0.00317756,1995.26,0.0267891,5.8965,0.0266474,-0.00275209,2.81177,0.380533,0.0101941,61,0.0305725,3.73207
2,1,Potentiostatic EIS,8.56522,3.73205,-0.00332539,1584.89,0.0269519,3.48663,0.026902,-0.00163909,2.70716,0.341911,0.00921514,48,0.030286,3.73205
2,1,Potentiostatic EIS,8.68982,3.73207,-0.00309693,1258.92,0.0271562,1.54968,0.0271463,-0.000734404,2.47729,0.382369,0.0103837,38,0.0301845,3.73207
2,1,Potentiostatic EIS,8.81465,3.73207,-0.00327597,999.999,0.0274291,-0.130487,0.027429,6.24677e-05,2.42391,0.372564,0.0102191,30,0.03,3.73207
2,1,Potentiostatic EIS,8.93823,3.73208,-0.00279939,794.328,0.0277488,-1.51068,0.0277392,0.000731549,2.3492,0.364094,0.0101032,24,0.0302142,3.73208
2,1,Potentiostatic EIS,9.06114,3.73207,-0.00312814,630.956,0.0281021,-2.73701,0.0280701,0.00134192,2.27057,0.357561,0.0100482,19,0.030113,3.73207
2,1,Potentiostatic EIS,9.18613,3.73208,-0.00252831,501.187,0.0284643,-3.85483,0.0283999,0.00191362,2.15361,0.352197,0.010025,15,0.029929,3.73208
2,1,Potentiostatic EIS,9.26532,3.7321,-0.00251341,398.107,0.028909,-4.8366,0.028806,0.00243744,2.06769,0.310487,0.00897587,12,0.0301427,3.7321
2,1,Potentiostatic EIS,9.34406,3.7321,-0.00235535,316.228,0.0293683,-5.82161,0.0292169,0.00297888,1.85772,0.320069,0.0093999,9,0.0284605,3.7321
2,1,Potentiostatic EIS,9.42433,3.7321,-0.00228879,251.189,0.0299502,-6.85059,0.0297364,0.00357248,1.67679,0.322961,0.00967275,8,0.0318486,3.7321
2,1,Potentiostatic EIS,9.51383,3.7321,-0.00211851,199.526,0.0305862,-7.68721,0.0303113,0.00409135,1.47914,0.321359,0.00982915,8,0.0400951,3.7321
2,1,Potentiostatic EIS,9.61428,3.7321,-0.00223109,158.489,0.0312983,-8.54919,0.0309505,0.00465276,1.23962,0.31689,0.00991811,8,0.0504766,3.7321
2,1,Potentiostatic EIS,9.72943,3.7321,-0.00230844,125.892,0.0321537,-9.38945,0.0317229,0.00524569,1.05844,0.309988,0.00996727,8,0.0635464,3.7321
2,1,Potentiostatic EIS,9.85856,3.7321,-0.00214111,100,0.0331161,-10.1284,0.0326,0.00582364,0.842504,0.301375,0.00998036,8,0.08,3.7321
2,1,Potentiostatic EIS,10.0109,3.7321,-0.00224308,79.4327,0.0342331,-10.6312,0.0336454,0.00631554,0.688052,0.291696,0.00998565,8,0.100714,3.7321
2,1,Potentiostatic EIS,10.1893,3.7321,-0.00244846,63.0956,0.0355785,-10.8832,0.0349386,0.00671746,0.577771,0.280528,0.00998075,8,0.126792,3.7321
2,1,Potentiostatic EIS,10.4028,3.7321,-0.00194981,50.1186,0.0368613,-11.0627,0.0361763,0.00707306,0.474547,0.266811,0.00983501,8,0.159621,3.7321
2,1,Potentiostatic EIS,10.6618,3.73208,-0.00282077,39.8107,0.038193,-10.9287,0.0375004,0.00724095,0.382815,0.257885,0.00984941,8,0.200951,3.73208
2,1,Potentiostatic EIS,10.805,3.73209,-0.00265417,31.6228,0.0395359,-10.6561,0.0388541,0.00731074,0.315201,0.251224,0.00993231,2,0.0632456,3.73209
2,1,Potentiostatic EIS,10.9673,3.73208,-0.00323502,25.1188,0.0407648,-10.2528,0.0401139,0.00725579,0.282827,0.237218,0.00967009,2,0.0796217,3.73208
2,1,Potentiostatic EIS,11.1669,3.7321,-0.0030817,19.9526,0.0419744,-9.83621,0.0413574,0.00717058,0.224893,0.232899,0.00977582,2,0.100238,3.7321
2,1,Potentiostatic EIS,11.4138,3.73208,-0.00309646,15.8489,0.0431288,-9.35593,0.0425551,0.00701132,0.218852,0.228122,0.00983857,2,0.126192,3.73208
2,1,Potentiostatic EIS,11.7202,3.73208,-0.0031347,12.5892,0.0442278,-8.81016,0.043706,0.00677398,0.185899,0.223523,0.00988592,2,0.158866,3.73208
2,1,Potentiostatic EIS,12.1012,3.73208,-0.00313231,9.99998,0.0452519,-8.20253,0.044789,0.00645621,0.185047,0.219127,0.00991589,2,0.2,3.73208
2,1,Potentiostatic EIS,12.5763,3.7321,-0.00300241,7.94328,0.0462013,-7.58498,0.045797,0.00609841,0.192701,0.21505,0.00993561,2,0.251785,3.7321
2,1,Potentiostatic EIS,13.1699,3.73209,-0.00333344,6.30957,0.0471601,-6.88134,0.0468204,0.00565042,0.321276,0.210965,0.00994919,2,0.316979,3.73209
2,1,Potentiostatic EIS,13.9099,3.73209,-0.00307391,5.01186,0.048339,-6.22866,0.0480536,0.00524461,0.216908,0.205913,0.00995364,2,0.399053,3.73209
2,1,Potentiostatic EIS,14.837,3.73209,-0.00302834,3.98106,0.0490315,-5.56207,0.0488006,0.00475232,0.171257,0.203111,0.00995882,2,0.502378,3.73209
2,1,Potentiostatic EIS,16.0019,3.73209,-0.00319375,3.16227,0.0495444,-4.95686,0.0493591,0.00428092,0.205702,0.201061,0.00996145,2,0.632458,3.73209
2,1,Potentiostatic EIS,17.4649,3.73209,-0.00336412,2.51188,0.0498044,-4.42683,0.0496559,0.00384421,0.277807,0.200164,0.00996735,2,0.796216,3.73209
2,1,Potentiostatic EIS,19.303,3.73208,-0.00325552,1.99526,0.0495478,-3.96967,0.0494289,0.00343011,0.149453,0.201215,0.00996974,2,1.00238,3.73208
2,1,Potentiostatic EIS,21.6127,3.73208,-0.00321032,1.58489,0.0498637,-3.54804,0.0497681,0.00308584,0.180443,0.199977,0.00997161,2,1.26192,3.73208
2,1,Potentiostatic EIS,24.5176,3.73208,-0.00337464,1.25892,0.0500914,-3.22877,0.0500119,0.00282129,0.178338,0.198963,0.00996635,2,1.58866,3.73208
2,1,Potentiostatic EIS,28.1691,3.73209,-0.00282554,0.999998,0.0503056,-2.99201,0.050237,0.00262579,0.169381,0.198016,0.0099613,2,2,3.73209
2,1,Potentiostatic EIS,32.7635,3.7321,-0.00274647,0.794327,0.0504831,-2.87507,0.0504196,0.00253215,0.165006,0.197421,0.00996645,2,2.51785,3.7321
2,1,Potentiostatic EIS,38.5425,3.73209,-0.00293908,0.630956,0.0506635,-2.80677,0.0506027,0.00248088,0.198505,0.196752,0.00996812,2,3.16979,3.73209
2,1,Potentiostatic EIS,45.8167,3.73209,-0.00230022,0.501186,0.0508034,-2.83317,0.0507413,0.00251111,0.213941,0.196173,0.00996622,2,3.99054,3.73209
2,1,Potentiostatic EIS,53.1064,3.73209,-0.00241177,0.5,0.050771,-2.83449,0.0507089,0.00251067,0.200113,0.196469,0.0099749,2,4,3.73209