Folder: feature-extraction-paper-2024/Data/P180/P180_03/EIS_06_P180_03_3

Note: README.md
# feature-extraction-paper-2024
Repository for code used and referenced in 2024 feature extraction paper

File: 2_EIS_06_P180_03_3 20230824 142204.csv
Step number,Repeats,Step name,Elapsed Time  (s),DC Working Electrode (V),DC Current (A),Frequency (Hz),|Z| (Ohms),Phase (deg),Z' (Ohms),-Z" (Ohms),THD (%),Amplitude (A),Amplitude (V),No of Cycles,Duration of Each Frequency (s),IR Compensated DC Working Electrode (V)
2,1,Potentiostatic EIS,0,3.58404,-0.0137512,1000000,2.90413,87.6447,0.11935,-2.90168,1.37496,0.00341965,0.00993128,1430,0.00143,3.58404
2,1,Potentiostatic EIS,0.230523,3.584,-0.0150298,794328,2.32754,87.4193,0.104803,-2.32518,1.2255,0.0042587,0.00991237,1445,0.00181915,3.584
2,1,Potentiostatic EIS,0.469911,3.58395,-0.0157585,630957.375,1.85323,87.0891,0.0941139,-1.85084,1.25308,0.00522123,0.00967493,1355,0.00214753,3.58395
2,1,Potentiostatic EIS,0.744524,3.58391,-0.016181,501187.25,1.47896,87.1818,0.0727157,-1.47718,1.31098,0.00672901,0.00995199,1385,0.00276344,3.58391
2,1,Potentiostatic EIS,1.02632,3.58385,-0.0171435,398107,1.18167,86.5985,0.0701109,-1.17959,1.36298,0.00844379,0.00997792,1400,0.00351664,3.58385
2,1,Potentiostatic EIS,1.32742,3.58381,-0.0180585,316228,0.939814,86.222,0.0619248,-0.937772,1.55973,0.0105624,0.00992676,1370,0.00433232,3.58381
2,1,Potentiostatic EIS,1.70119,3.58374,-0.0189211,251189,0.753521,85.506,0.0590422,-0.751204,1.26966,0.0132271,0.00996688,1340,0.00533464,3.58374
2,1,Potentiostatic EIS,2.11235,3.58368,-0.0199205,199526,0.601238,85.3394,0.0488529,-0.59925,1.63843,0.0165017,0.00992151,1355,0.00679109,3.58368
2,1,Potentiostatic EIS,2.57799,3.58363,-0.0209051,158489,0.48345,84.477,0.0465296,-0.481206,1.78162,0.0206031,0.00996059,1360,0.00858102,3.58363
2,1,Potentiostatic EIS,3.12133,3.58353,-0.0224524,125893,0.387838,83.9016,0.0412024,-0.385643,1.66377,0.0257806,0.00999871,1370,0.0108823,3.58353
2,1,Potentiostatic EIS,3.74037,3.58346,-0.0234559,100000,0.309748,83.0955,0.0372363,-0.307501,1.88917,0.0317547,0.00983595,1370,0.0137,3.58346
2,1,Potentiostatic EIS,4.41401,3.58335,-0.0254615,79432.8,0.249366,81.673,0.0361138,-0.246737,2.59223,0.0401688,0.0100168,1365,0.0171843,3.58335
2,1,Potentiostatic EIS,4.66114,3.58331,-0.0266418,63095.7,0.199499,80.6834,0.0322969,-0.196867,2.23583,0.0492404,0.00982328,1290,0.0204451,3.58331
2,1,Potentiostatic EIS,4.93615,3.58324,-0.0269314,50118.75,0.16112,78.8218,0.0312349,-0.158063,2.2235,0.0600142,0.00967036,1025,0.0204514,3.58324
2,1,Potentiostatic EIS,5.31831,3.58377,-0.0137376,39810.7,0.130376,77.1935,0.0288992,-0.127133,4.94629,0.0763931,0.00995992,815,0.0204719,3.58377
2,1,Potentiostatic EIS,5.55225,3.58378,-0.0137046,31622.8,0.106094,74.6144,0.0281484,-0.102292,5.65279,0.0947573,0.0100534,645,0.0203967,3.58378
2,1,Potentiostatic EIS,5.78127,3.58411,-0.0057256,25118.9,0.0864855,72.003,0.0267211,-0.082254,6.39155,0.116672,0.0100905,510,0.0203034,3.58411
2,1,Potentiostatic EIS,6.00897,3.58414,-0.00480594,19952.6,0.0705836,68.705,0.0256338,-0.0657644,6.83043,0.142792,0.010079,405,0.0202981,3.58414
2,1,Potentiostatic EIS,6.24098,3.58419,-0.00447149,15848.9,0.0578125,64.8541,0.0245659,-0.0523336,7.3411,0.173109,0.0100079,320,0.0201906,3.58419
2,1,Potentiostatic EIS,6.46958,3.58421,-0.00341999,12589.2,0.0483209,60.3588,0.0238979,-0.0419976,7.36092,0.207117,0.0100082,255,0.0202554,3.58421
2,1,Potentiostatic EIS,6.73239,3.58411,-0.00335404,9999.98,0.0410537,55.2034,0.0234279,-0.0337126,3.47183,0.246897,0.0101361,307,0.0307001,3.58411
2,1,Potentiostatic EIS,6.94431,3.5841,-0.0035902,7943.27,0.0354788,49.9217,0.0228425,-0.0271472,4.22097,0.276762,0.0098192,244,0.0307178,3.5841
2,1,Potentiostatic EIS,7.15553,3.58413,-0.00339205,6309.57,0.0304118,44.0901,0.0218432,-0.0211602,4.71793,0.348492,0.0105982,193,0.0305885,3.58413
2,1,Potentiostatic EIS,7.36647,3.58417,-0.00231954,5011.87,0.0274175,35.9476,0.022196,-0.0160953,4.80088,0.380397,0.0104295,153,0.0305276,3.58417
2,1,Potentiostatic EIS,7.57839,3.5842,-0.00153792,3981.07,0.025665,29.1909,0.0224056,-0.0125174,4.57804,0.399542,0.0102543,122,0.0306451,3.5842
2,1,Potentiostatic EIS,7.7453,3.58422,-0.00118263,3162.27,0.0245099,23.1845,0.0225305,-0.00964939,4.35669,0.357409,0.00876007,97,0.0306742,3.58422
2,1,Potentiostatic EIS,7.91317,3.58421,-0.0012816,2511.88,0.0237875,17.9775,0.0226262,-0.00734188,3.77653,0.441911,0.010512,77,0.0306543,3.58421
2,1,Potentiostatic EIS,8.08153,3.58422,-0.00148172,1995.26,0.0233956,13.4267,0.0227561,-0.00543246,3.30283,0.440587,0.0103078,61,0.0305725,3.58422
2,1,Potentiostatic EIS,8.24925,3.58424,-0.00082525,1584.89,0.0232203,9.6218,0.0228936,-0.00388112,3.02751,0.436964,0.0101464,48,0.030286,3.58424
2,1,Potentiostatic EIS,8.37395,3.58424,-0.000669139,1258.92,0.0232163,6.38338,0.0230723,-0.0025812,2.75294,0.394938,0.009169,38,0.0301845,3.58424
2,1,Potentiostatic EIS,8.4975,3.58426,-0.000314165,999.999,0.0233121,3.65579,0.0232647,-0.00148643,2.51847,0.442396,0.0103132,30,0.03,3.58426
2,1,Potentiostatic EIS,8.62131,3.58427,-0.000102619,794.328,0.0235049,1.36064,0.0234983,-0.000558134,2.33307,0.433034,0.0101784,24,0.0302142,3.58427
2,1,Potentiostatic EIS,8.74425,3.58427,-1.97155e-06,630.956,0.0237693,-0.632184,0.0237679,0.000262258,2.17972,0.424975,0.0101014,19,0.030113,3.58427
2,1,Potentiostatic EIS,8.86796,3.58425,-4.19029e-05,501.187,0.0240683,-2.40971,0.0240471,0.00101195,2.10101,0.418122,0.0100635,15,0.029929,3.58425
2,1,Potentiostatic EIS,8.94883,3.58426,-7.83294e-05,398.107,0.0244734,-3.98069,0.0244144,0.00169895,2.05272,0.353498,0.00865129,12,0.0301427,3.58426
2,1,Potentiostatic EIS,9.02851,3.58425,0.000143959,316.228,0.0249189,-5.37361,0.0248094,0.00233365,1.89043,0.368999,0.00919505,9,0.0284605,3.58425
2,1,Potentiostatic EIS,9.10947,3.58426,-5.55975e-05,251.189,0.0254981,-6.69204,0.0253244,0.00297136,1.7063,0.37489,0.00955899,8,0.0318486,3.58426
2,1,Potentiostatic EIS,9.19903,3.58426,0.000308768,199.526,0.0261548,-7.81114,0.0259121,0.00355465,1.57197,0.37364,0.00977246,8,0.0400951,3.58426
2,1,Potentiostatic EIS,9.29939,3.58427,0.000412486,158.489,0.0269178,-8.81164,0.0266001,0.00412344,1.3362,0.367618,0.00989546,8,0.0504766,3.58427
2,1,Potentiostatic EIS,9.41272,3.58426,0.000529132,125.892,0.0277561,-9.60608,0.0273669,0.00463175,1.16785,0.358496,0.00995044,8,0.0635464,3.58426
2,1,Potentiostatic EIS,9.54212,3.58426,0.000337146,100,0.0287192,-10.2331,0.0282624,0.00510205,0.942509,0.347425,0.00997776,8,0.08,3.58426
2,1,Potentiostatic EIS,9.69374,3.58427,0.000452492,79.4327,0.0297447,-10.5418,0.0292427,0.0054419,0.793439,0.33543,0.00997729,8,0.100714,3.58427
2,1,Potentiostatic EIS,9.87399,3.58427,5.58334e-06,63.0956,0.0308242,-10.6028,0.030298,0.00567162,0.657519,0.323544,0.00997301,8,0.126792,3.58427
2,1,Potentiostatic EIS,10.0885,3.58427,0.000589825,50.1186,0.0318843,-10.551,0.0313452,0.00583838,0.566556,0.306697,0.00977883,8,0.159621,3.58427
2,1,Potentiostatic EIS,10.3474,3.58426,-0.000221988,39.8107,0.0329135,-10.2178,0.0323915,0.00583857,0.445526,0.29782,0.00980229,8,0.200951,3.58426
2,1,Potentiostatic EIS,10.4917,3.58426,-0.00149594,31.6228,0.0338936,-9.90707,0.0333881,0.00583141,0.362949,0.292594,0.0099172,2,0.0632456,3.58426
2,1,Potentiostatic EIS,10.6534,3.58427,-0.000245007,25.1188,0.0348741,-9.32733,0.034413,0.0056522,0.290286,0.277117,0.00966412,2,0.0796217,3.58427
2,1,Potentiostatic EIS,10.8528,3.58426,-0.000572282,19.9526,0.0357817,-8.78631,0.0353618,0.00546564,0.29027,0.273047,0.00977007,2,0.100238,3.58426
2,1,Potentiostatic EIS,11.0998,3.58426,-0.000556831,15.8489,0.0366259,-8.19382,0.036252,0.00522,0.272695,0.268557,0.0098362,2,0.126192,3.58426
2,1,Potentiostatic EIS,11.4064,3.58426,-0.000400818,12.5892,0.0374256,-7.53903,0.0371021,0.00491029,0.237568,0.263961,0.00987892,2,0.158866,3.58426
2,1,Potentiostatic EIS,11.7878,3.58427,-0.000610852,9.99998,0.0381345,-6.88698,0.0378593,0.00457275,0.246081,0.259879,0.00991038,2,0.2,3.58427
2,1,Potentiostatic EIS,12.2627,3.58427,-0.000818126,7.94328,0.0387833,-6.24138,0.0385534,0.00421642,0.213649,0.255967,0.00992725,2,0.251785,3.58427
2,1,Potentiostatic EIS,12.8563,3.58427,-0.000807376,6.30957,0.0393232,-5.58685,0.0391364,0.00382829,0.210131,0.252564,0.00993164,2,0.316979,3.58427
2,1,Potentiostatic EIS,13.5968,3.58427,-0.000641593,5.01186,0.0397835,-4.98746,0.0396328,0.00345868,0.213193,0.250044,0.00994761,2,0.399053,3.58427
2,1,Potentiostatic EIS,14.5238,3.58427,-0.000563025,3.98106,0.0401729,-4.4266,0.0400531,0.00310062,0.199159,0.247753,0.00995296,2,0.502378,3.58427
2,1,Potentiostatic EIS,15.6886,3.58427,-0.0010587,3.16227,0.0404954,-3.94581,0.0403994,0.00278661,0.194904,0.245725,0.00995075,2,0.632458,3.58427
2,1,Potentiostatic EIS,17.1511,3.58427,-0.000975333,2.51188,0.0407562,-3.56033,0.0406775,0.00253094,0.203723,0.244356,0.00995899,2,0.796216,3.58427
2,1,Potentiostatic EIS,18.9896,3.58427,-0.000935349,1.99526,0.0409593,-3.25412,0.0408932,0.00232504,0.187155,0.243001,0.00995314,2,1.00238,3.58427
2,1,Potentiostatic EIS,21.2998,3.58427,-0.0013067,1.58489,0.0411543,-3.05109,0.0410959,0.0021905,0.191075,0.242002,0.00995942,2,1.26192,3.58427
2,1,Potentiostatic EIS,24.2039,3.58428,-0.00100599,1.25892,0.0413286,-2.91812,0.041275,0.00210399,0.205586,0.241082,0.00996355,2,1.58866,3.58428
2,1,Potentiostatic EIS,27.8566,3.58427,-0.000859288,0.999998,0.0414872,-2.89361,0.0414343,0.00209434,0.18692,0.239864,0.00995128,2,2,3.58427
2,1,Potentiostatic EIS,32.4518,3.58427,-0.00163287,0.794327,0.0416482,-2.92263,0.0415941,0.00212354,0.178713,0.239072,0.00995692,2,2.51785,3.58427
2,1,Potentiostatic EIS,38.2305,3.58428,-0.0010281,0.630956,0.0418161,-3.03478,0.0417575,0.00221384,0.193124,0.238081,0.00995561,2,3.16979,3.58428
2,1,Potentiostatic EIS,45.5048,3.58428,-0.000776447,0.501186,0.04197,-3.23987,0.0419029,0.00237199,0.230077,0.237416,0.00996435,2,3.99054,3.58428
2,1,Potentiostatic EIS,52.7943,3.58427,-0.00101853,0.5,0.0419731,-3.25807,0.0419053,0.00238547,0.225882,0.237235,0.00995749,2,4,3.58427