Folder: feature-extraction-paper-2024/Data/P180/P180_03/EIS_08_P180_03_5

Note: README.md
# feature-extraction-paper-2024
Repository for code used and referenced in 2024 feature extraction paper

File: 2_EIS_08_P180_03_5 20230828 110757.csv
Step number,Repeats,Step name,Elapsed Time  (s),DC Working Electrode (V),DC Current (A),Frequency (Hz),|Z| (Ohms),Phase (deg),Z' (Ohms),-Z" (Ohms),THD (%),Amplitude (A),Amplitude (V),No of Cycles,Duration of Each Frequency (s),IR Compensated DC Working Electrode (V)
2,1,Potentiostatic EIS,0,3.51962,-0.010922,1000000,2.62723,87.2792,0.124712,-2.62426,1.35201,0.00378061,0.00993235,1430,0.00143,3.51962
2,1,Potentiostatic EIS,0.244756,3.51953,-0.0124411,794328,2.11042,86.8358,0.116491,-2.1072,1.31184,0.00474642,0.0100173,1445,0.00181915,3.51953
2,1,Potentiostatic EIS,0.501419,3.51949,-0.0126762,630957.375,1.68199,86.2236,0.110781,-1.67834,1.50985,0.00592376,0.00996369,1355,0.00214753,3.51949
2,1,Potentiostatic EIS,0.771138,3.51946,-0.0134338,501187.25,1.34688,86.2193,0.0888115,-1.34395,1.35427,0.00738696,0.00994942,1385,0.00276344,3.51946
2,1,Potentiostatic EIS,1.04768,3.51938,-0.0145555,398107,1.0776,85.4013,0.0863974,-1.07413,1.37357,0.00925892,0.00997747,1400,0.00351664,3.51938
2,1,Potentiostatic EIS,1.42775,3.51933,-0.0153023,316228,0.859885,84.8885,0.0766114,-0.856465,1.48918,0.0114958,0.00988522,1370,0.00433232,3.51933
2,1,Potentiostatic EIS,1.79025,3.51927,-0.0159634,251189,0.691448,84.0574,0.0715866,-0.687733,1.46916,0.0144267,0.00997541,1340,0.00533464,3.51927
2,1,Potentiostatic EIS,2.19684,3.51922,-0.0172011,199526,0.553248,83.5436,0.0622106,-0.549739,1.54993,0.0179562,0.00993423,1355,0.00679109,3.51922
2,1,Potentiostatic EIS,2.73458,3.51914,-0.0181826,158489,0.447011,82.602,0.0575575,-0.44329,1.68646,0.022303,0.00996971,1360,0.00858102,3.51914
2,1,Potentiostatic EIS,3.27057,3.51905,-0.019454,125893,0.359472,81.6295,0.05233,-0.355643,1.81102,0.0277526,0.0099763,1370,0.0108823,3.51905
2,1,Potentiostatic EIS,3.89313,3.51898,-0.0205805,100000,0.288513,80.3747,0.0482407,-0.284452,1.85421,0.0336455,0.00970806,1370,0.0137,3.51898
2,1,Potentiostatic EIS,4.56981,3.51888,-0.0219833,79432.8,0.233918,78.7399,0.0456757,-0.229415,2.25269,0.0424195,0.0099225,1365,0.0171843,3.51888
2,1,Potentiostatic EIS,4.82202,3.51879,-0.0238375,63095.7,0.188793,77.4056,0.0411659,-0.18425,2.12847,0.0515701,0.00973645,1290,0.0204451,3.51879
2,1,Potentiostatic EIS,5.15259,3.51868,-0.0247356,50118.75,0.154168,75.018,0.039855,-0.148928,1.99885,0.0648131,0.0099922,1025,0.0204514,3.51868
2,1,Potentiostatic EIS,5.52799,3.51935,-0.0109941,39810.7,0.124966,72.84,0.0368701,-0.119403,4.62754,0.079745,0.00996546,815,0.0204719,3.51935
2,1,Potentiostatic EIS,5.75334,3.51933,-0.0108766,31622.8,0.102897,69.8127,0.0355087,-0.0965758,5.37435,0.0976517,0.0100482,645,0.0203967,3.51933
2,1,Potentiostatic EIS,5.97316,3.51966,-0.00410229,25118.9,0.0848893,66.5593,0.033769,-0.0778836,5.9566,0.118849,0.010089,510,0.0203034,3.51966
2,1,Potentiostatic EIS,6.19528,3.51969,-0.00286535,19952.6,0.0704295,62.5651,0.0324497,-0.0625086,6.23876,0.143193,0.0100851,405,0.0202981,3.51969
2,1,Potentiostatic EIS,6.42145,3.51975,-0.00227841,15848.9,0.0590027,58.1263,0.0311563,-0.050106,6.86068,0.16993,0.0100265,320,0.0201906,3.51975
2,1,Potentiostatic EIS,6.62521,3.51979,-0.00130512,12589.2,0.0504302,53.0098,0.0303427,-0.0402806,6.53391,0.193391,0.0097533,255,0.0202554,3.51979
2,1,Potentiostatic EIS,6.88836,3.51988,-0.001533,9999.98,0.0439919,47.5167,0.029711,-0.0324429,3.14098,0.228956,0.0100722,307,0.0307001,3.51988
2,1,Potentiostatic EIS,7.09987,3.51988,-0.00175874,7943.27,0.0390742,42.0829,0.0289999,-0.0261877,3.76272,0.27332,0.0106797,244,0.0307178,3.51988
2,1,Potentiostatic EIS,7.31287,3.51991,-0.00101774,6309.57,0.0345463,36.1594,0.027892,-0.0203835,4.26101,0.304745,0.0105278,193,0.0305885,3.51991
2,1,Potentiostatic EIS,7.52631,3.51993,-0.000491217,5011.87,0.0321512,28.8373,0.0281642,-0.0155073,4.27492,0.320855,0.0103159,153,0.0305276,3.51993
2,1,Potentiostatic EIS,7.69507,3.51995,0.000153669,3981.07,0.0307409,22.84,0.0283306,-0.0119324,4.15984,0.280793,0.00863183,122,0.0306451,3.51995
2,1,Potentiostatic EIS,7.86321,3.51996,-3.11571e-05,3162.27,0.0299117,17.9027,0.0284634,-0.0091949,3.70826,0.354526,0.0106045,97,0.0306742,3.51996
2,1,Potentiostatic EIS,8.03236,3.51995,-0.000299575,2511.88,0.0293891,13.595,0.0285657,-0.00690812,3.4211,0.352922,0.0103721,77,0.0306543,3.51995
2,1,Potentiostatic EIS,8.19968,3.51999,0.00035965,1995.26,0.0291435,9.93992,0.028706,-0.00503062,3.08294,0.348984,0.0101706,61,0.0305725,3.51999
2,1,Potentiostatic EIS,8.32489,3.52,0.000486533,1584.89,0.0291051,6.86378,0.0288965,-0.00347833,2.88318,0.325127,0.00946285,48,0.030286,3.52
2,1,Potentiostatic EIS,8.44819,3.52,0.000848258,1258.92,0.0291875,4.38846,0.0291019,-0.00223337,2.54297,0.35514,0.0103656,38,0.0301845,3.52
2,1,Potentiostatic EIS,8.57448,3.51999,0.000614173,999.999,0.0293768,2.29767,0.0293532,-0.00117775,2.38299,0.347798,0.0102172,30,0.03,3.51999
2,1,Potentiostatic EIS,8.69865,3.52,0.000868629,794.328,0.0296196,0.544394,0.0296182,-0.000281425,2.31524,0.341196,0.0101061,24,0.0302142,3.52
2,1,Potentiostatic EIS,8.82218,3.52,0.00058402,630.956,0.0299238,-0.899593,0.0299201,0.00046981,2.17788,0.335711,0.0100457,19,0.030113,3.52
2,1,Potentiostatic EIS,8.94552,3.52001,0.00117683,501.187,0.0302687,-2.23721,0.0302457,0.0011816,2.06625,0.331541,0.0100353,15,0.029929,3.52001
2,1,Potentiostatic EIS,9.02491,3.52,0.000946497,398.107,0.03069,-3.33278,0.0306381,0.00178417,1.96162,0.291738,0.00895344,12,0.0301427,3.52
2,1,Potentiostatic EIS,9.10357,3.52,0.0010722,316.228,0.0311656,-4.38561,0.0310744,0.00238319,1.78107,0.300654,0.00937007,9,0.0284605,3.52
2,1,Potentiostatic EIS,9.18482,3.52,0.00117886,251.189,0.0316862,-5.29616,0.0315509,0.00292476,1.56526,0.303805,0.00962642,8,0.0318486,3.52
2,1,Potentiostatic EIS,9.27379,3.52001,0.0012293,199.526,0.0323122,-6.05967,0.0321317,0.00341101,1.38862,0.302919,0.00978797,8,0.0400951,3.52001
2,1,Potentiostatic EIS,9.37443,3.52001,0.00130874,158.489,0.0330135,-6.78001,0.0327826,0.00389749,1.17351,0.299343,0.00988235,8,0.0504766,3.52001
2,1,Potentiostatic EIS,9.4865,3.52002,0.0013691,125.892,0.0337667,-7.39288,0.033486,0.00434484,1.00351,0.294084,0.00993025,8,0.0635464,3.52002
2,1,Potentiostatic EIS,9.61645,3.52001,0.00140664,100,0.0346465,-7.88136,0.0343192,0.0047508,0.793767,0.287367,0.00995627,8,0.08,3.52001
2,1,Potentiostatic EIS,9.76678,3.52001,0.00134243,79.4327,0.035551,-8.17807,0.0351895,0.00505714,0.699396,0.280129,0.00995886,8,0.100714,3.52001
2,1,Potentiostatic EIS,9.94578,3.52002,0.00115288,63.0956,0.0365103,-8.29918,0.036128,0.00526998,0.525296,0.272754,0.00995834,8,0.126792,3.52002
2,1,Potentiostatic EIS,10.1604,3.52002,0.00163497,50.1186,0.0374829,-8.33517,0.0370869,0.00543365,0.440975,0.261858,0.00981518,8,0.159621,3.52002
2,1,Potentiostatic EIS,10.4193,3.52,0.000952489,39.8107,0.0384381,-8.165,0.0380484,0.00545914,0.359817,0.255795,0.00983227,8,0.200951,3.52
2,1,Potentiostatic EIS,10.5638,3.52002,-3.53246e-05,31.6228,0.0393542,-7.99348,0.0389718,0.00547261,0.300581,0.25216,0.00992364,2,0.0632456,3.52002
2,1,Potentiostatic EIS,10.7262,3.52001,0.000765848,25.1188,0.0403029,-7.58491,0.0399503,0.0053198,0.269034,0.240139,0.00967829,2,0.0796217,3.52001
2,1,Potentiostatic EIS,10.9259,3.52,0.000488615,19.9526,0.0411445,-7.24464,0.040816,0.00518857,0.249874,0.237631,0.00977712,2,0.100238,3.52
2,1,Potentiostatic EIS,11.1729,3.52001,0.000640524,15.8489,0.0419842,-6.79457,0.0416893,0.00496714,0.239388,0.234411,0.00984158,2,0.126192,3.52001
2,1,Potentiostatic EIS,11.4794,3.52001,0.000547155,12.5892,0.0427361,-6.32571,0.0424759,0.00470868,0.213736,0.231295,0.00988466,2,0.158866,3.52001
2,1,Potentiostatic EIS,11.8609,3.52,0.000513877,9.99998,0.0434158,-5.84915,0.0431898,0.00442449,0.198159,0.228317,0.00991256,2,0.2,3.52
2,1,Potentiostatic EIS,12.3358,3.52,0.000248549,7.94328,0.0440585,-5.35545,0.0438662,0.00411216,0.183004,0.225466,0.00993371,2,0.251785,3.52
2,1,Potentiostatic EIS,12.9294,3.52001,0.000187173,6.30957,0.0446073,-4.85832,0.0444471,0.00377789,0.18459,0.222799,0.00993845,2,0.316979,3.52001
2,1,Potentiostatic EIS,13.6694,3.52001,0.000216,5.01186,0.0451209,-4.39497,0.0449882,0.00345768,0.184494,0.220488,0.00994863,2,0.399053,3.52001
2,1,Potentiostatic EIS,14.5965,3.52002,0.000226718,3.98106,0.0455354,-3.95522,0.0454269,0.00314089,0.180645,0.218736,0.00996024,2,0.502378,3.52002
2,1,Potentiostatic EIS,15.7615,3.52001,-0.000189926,3.16227,0.045878,-3.57566,0.0457887,0.00286125,0.187725,0.217001,0.00995556,2,0.632458,3.52001
2,1,Potentiostatic EIS,17.2241,3.52001,-0.000209848,2.51188,0.0461905,-3.26246,0.0461156,0.0026287,0.181951,0.215792,0.00996754,2,0.796216,3.52001
2,1,Potentiostatic EIS,19.0627,3.52001,-0.000130304,1.99526,0.0464231,-3.01753,0.0463587,0.00244378,0.164457,0.214789,0.00997117,2,1.00238,3.52001
2,1,Potentiostatic EIS,21.3724,3.52001,-0.00054875,1.58489,0.0466117,-2.84168,0.0465544,0.00231084,0.216074,0.213805,0.00996582,2,1.26192,3.52001
2,1,Potentiostatic EIS,24.2779,3.52001,-0.000326611,1.25892,0.0468246,-2.73075,0.0467715,0.00223084,0.177124,0.212981,0.00997277,2,1.58866,3.52001
2,1,Potentiostatic EIS,27.9295,3.52001,-0.00010036,0.999998,0.0469626,-2.70439,0.0469103,0.00221584,0.148868,0.212192,0.00996511,2,2,3.52001
2,1,Potentiostatic EIS,32.5249,3.52002,-0.000549442,0.794327,0.0471329,-2.77244,0.0470777,0.00227979,0.183145,0.211386,0.00996323,2,2.51785,3.52002
2,1,Potentiostatic EIS,38.304,3.52002,-0.000238999,0.630956,0.0473155,-2.8944,0.0472551,0.00238921,0.162263,0.210564,0.00996292,2,3.16979,3.52002
2,1,Potentiostatic EIS,45.5782,3.52002,-0.000169267,0.501186,0.0474498,-3.10617,0.0473801,0.00257113,0.20967,0.210081,0.00996833,2,3.99054,3.52002
2,1,Potentiostatic EIS,52.8675,3.52003,-0.000186856,0.5,0.0474841,-3.11776,0.0474138,0.00258258,0.202916,0.209843,0.0099642,2,4,3.52003