Folder: feature-extraction-paper-2024/Data/P180/P180_03/EIS_04_P180_03_2

Note: Data/P180/P180_03/EIS_04_P180_03_2/Experiment settings and notes.txt
MEIS_230809_01
System: Windows64
Software Version: Squidstat User Interface v2.08.29.2022

Plus1933, Channel 1
Firmware version: August 3, 2022 Plus / Ace 2.4 firmware
Firmware checksum: 2C5FB886
Potentiostat Stability: Bandwidth Index = 3, Stability Factor = 0.

IR Drop Compensation: 
Uncompensated Resistance (Ohm): 0
Compensation Level (0% - 100%): 0%

Working Electrode Status:
Working electrode is earth grounded.

Data Sampling Options: 
Maximum data averaging period: 1 s
Alpha-Factor:  75%
Minimum number of cycles: 2
Show data sampled during experiment "quiet times":  false

Show data sampled during experiment "rest times":  false
Supplementary Notes
Physical Parameters:
Working Electrode Area (m2): 0
Working Electrode Mass (g): 0
Working Electrode Volume (cm3): 0
Battery Capacity (mAh): 0

Reference Electrode:
Other Reference Electrode: 
Working Electrode vs. NHE (V): 0

Other Notes:
P180_03 cell 2 discharged cycle 1 end


Experiment Parameters:
Step 1) Open Circuit Potential

Duration: 1 min
Sampling interval: 5 s

Ending Conditions

Maximum Potential: N/A
Minimum Potential: N/A
Minimum potential rate of change: N/A
Append data to the last CSV file that has matching column headers  No
Execute 1 time(s)

Step 2) Potentiostatic EIS

Starting frequency: 1000 kHz
Ending frequency: 500 mHz
Steps per decade: 10  
DC bias potential: 0 V
with respect to: open circuit
AC excitation amplitude: 10 mV 
Append data to the last CSV file that has matching column headers  No
Execute 1 time(s)

Note: README.md
# feature-extraction-paper-2024
Repository for code used and referenced in 2024 feature extraction paper

File: 2_EIS_04_P180_03_2 20230822 145948.csv
Step number,Repeats,Step name,Elapsed Time  (s),DC Working Electrode (V),DC Current (A),Frequency (Hz),|Z| (Ohms),Phase (deg),Z' (Ohms),-Z" (Ohms),THD (%),Amplitude (A),Amplitude (V),No of Cycles,Duration of Each Frequency (s),IR Compensated DC Working Electrode (V)
2,1,Potentiostatic EIS,0,3.53735,-0.0103621,1000000,3.25128,88.4419,0.0884066,-3.25008,0.889285,0.00303605,0.00987116,1430,0.00143,3.53735
2,1,Potentiostatic EIS,0.230278,3.53731,-0.0112766,794328,2.60015,87.9644,0.0923576,-2.59851,0.939824,0.00381369,0.0099162,1445,0.00181915,3.53731
2,1,Potentiostatic EIS,0.470828,3.53728,-0.0117587,630957.375,2.06953,87.69,0.0834145,-2.06785,0.848413,0.00474342,0.00981701,1355,0.00214753,3.53728
2,1,Potentiostatic EIS,0.745873,3.53723,-0.0125477,501187.25,1.64713,87.5874,0.0693351,-1.64567,1.11878,0.00604275,0.00995319,1385,0.00276344,3.53723
2,1,Potentiostatic EIS,1.02538,3.5372,-0.0128114,398107,1.3177,86.9296,0.0705811,-1.31581,1.02087,0.0075645,0.0099678,1400,0.00351664,3.5372
2,1,Potentiostatic EIS,1.32655,3.53715,-0.0134719,316228,1.04837,86.5068,0.063878,-1.04642,1.10734,0.00947703,0.00993546,1370,0.00433232,3.53715
2,1,Potentiostatic EIS,1.74757,3.53711,-0.0141388,251189,0.841291,85.7862,0.0618165,-0.839017,1.06261,0.0118729,0.00998855,1340,0.00533464,3.53711
2,1,Potentiostatic EIS,2.16472,3.53707,-0.0146124,199526,0.668676,85.604,0.0512534,-0.666709,1.25839,0.014806,0.00990046,1355,0.00679109,3.53707
2,1,Potentiostatic EIS,2.62164,3.53702,-0.0150512,158489,0.538079,84.6948,0.0497515,-0.535774,1.22882,0.0185253,0.00996811,1360,0.00858102,3.53702
2,1,Potentiostatic EIS,3.15128,3.53693,-0.0165318,125893,0.430608,83.8625,0.0460381,-0.42814,1.55511,0.0231617,0.00997367,1370,0.0108823,3.53693
2,1,Potentiostatic EIS,3.78305,3.53689,-0.0173183,100000,0.34465,82.9861,0.042085,-0.342071,1.5991,0.0289493,0.00997741,1370,0.0137,3.53689
2,1,Potentiostatic EIS,4.45756,3.53682,-0.0181781,79432.8,0.276974,81.7651,0.0396717,-0.274119,2.14701,0.0360736,0.00999147,1365,0.0171843,3.53682
2,1,Potentiostatic EIS,4.70764,3.53673,-0.0200666,63095.7,0.222243,80.5128,0.0366318,-0.219204,1.8699,0.0449289,0.00998515,1290,0.0204451,3.53673
2,1,Potentiostatic EIS,4.9604,3.53668,-0.0202758,50118.75,0.179159,78.7801,0.0348599,-0.175735,1.83644,0.0550528,0.00986351,1025,0.0204514,3.53668
2,1,Potentiostatic EIS,5.24712,3.53668,-0.0197095,39810.7,0.144553,76.6053,0.0334868,-0.140621,1.7163,0.0674883,0.00975585,815,0.0204719,3.53668
2,1,Potentiostatic EIS,5.58221,3.53705,-0.0124187,31622.8,0.117863,74.0467,0.0323952,-0.113324,4.57942,0.0827002,0.00974698,645,0.0203967,3.53705
2,1,Potentiostatic EIS,5.80381,3.53747,-0.00348452,25118.9,0.095947,71.0796,0.0311112,-0.090763,5.91479,0.104886,0.0100637,510,0.0203034,3.53747
2,1,Potentiostatic EIS,6.02212,3.5375,-0.00300586,19952.6,0.0783734,67.6313,0.0298261,-0.0724761,6.71041,0.128333,0.0100579,405,0.0202981,3.5375
2,1,Potentiostatic EIS,6.22578,3.53753,-0.00266626,15848.9,0.0644647,63.487,0.0287771,-0.0576851,7.07341,0.15097,0.00973296,320,0.0201906,3.53753
2,1,Potentiostatic EIS,6.42853,3.53753,-0.00220529,12589.2,0.054144,58.6105,0.0282011,-0.0462198,7.11113,0.182096,0.00985916,255,0.0202554,3.53753
2,1,Potentiostatic EIS,6.73522,3.53759,-0.00151835,9999.98,0.0463331,53.1257,0.0278027,-0.0370643,3.44336,0.215819,0.00999957,307,0.0307001,3.53759
2,1,Potentiostatic EIS,6.94743,3.53758,-0.00212841,7943.27,0.0403669,47.5392,0.0272511,-0.0297802,4.13382,0.262942,0.0106141,244,0.0307178,3.53758
2,1,Potentiostatic EIS,7.16149,3.5376,-0.00133983,6309.57,0.0350288,41.3509,0.0262953,-0.0231424,4.6724,0.30006,0.0105107,193,0.0305885,3.5376
2,1,Potentiostatic EIS,7.37331,3.53763,-0.000954935,5011.87,0.031974,33.5585,0.0266446,-0.0176748,4.72266,0.32241,0.0103087,153,0.0305276,3.53763
2,1,Potentiostatic EIS,7.58485,3.53765,-0.00069547,3981.07,0.0301851,27.0574,0.0268814,-0.0137307,4.49057,0.335197,0.0101179,122,0.0306451,3.53765
2,1,Potentiostatic EIS,7.75439,3.53765,-0.000305387,3162.27,0.0290458,21.424,0.0270388,-0.0106094,4.16346,0.353226,0.0102597,97,0.0306742,3.53765
2,1,Potentiostatic EIS,7.92279,3.53765,-0.000382662,2511.88,0.028311,16.4969,0.0271456,-0.00803931,3.74437,0.36689,0.010387,77,0.0306543,3.53765
2,1,Potentiostatic EIS,8.08991,3.53767,-0.000320889,1995.26,0.0279642,12.2665,0.0273258,-0.00594124,3.23517,0.364452,0.0101916,61,0.0305725,3.53767
2,1,Potentiostatic EIS,8.21536,3.53767,-0.000225792,1584.89,0.0278346,8.6836,0.0275155,-0.0042024,2.99092,0.325567,0.00906201,48,0.030286,3.53767
2,1,Potentiostatic EIS,8.33852,3.53766,-0.000202375,1258.92,0.0278424,5.85728,0.027697,-0.00284134,2.71738,0.373783,0.010407,38,0.0301845,3.53766
2,1,Potentiostatic EIS,8.46295,3.53767,0.00012884,999.999,0.028025,3.44367,0.0279744,-0.00168338,2.48961,0.365172,0.010234,30,0.03,3.53767
2,1,Potentiostatic EIS,8.58581,3.53769,0.000441185,794.328,0.0282952,1.48516,0.0282857,-0.000733356,2.31373,0.357978,0.0101291,24,0.0302142,3.53769
2,1,Potentiostatic EIS,8.70932,3.53769,0.000505306,630.956,0.0285762,-0.222525,0.028576,0.000110984,2.22165,0.352302,0.0100674,19,0.030113,3.53769
2,1,Potentiostatic EIS,8.83326,3.53769,0.000638125,501.187,0.0288777,-1.67561,0.0288654,0.000844405,2.09223,0.34743,0.010033,15,0.029929,3.53769
2,1,Potentiostatic EIS,8.91171,3.5377,0.000788887,398.107,0.0292681,-2.95767,0.0292291,0.00151018,2.01975,0.303267,0.00887606,12,0.0301427,3.5377
2,1,Potentiostatic EIS,8.99224,3.5377,0.000598088,316.228,0.0296646,-4.09784,0.0295887,0.00211983,1.82112,0.313845,0.00931008,9,0.0284605,3.5377
2,1,Potentiostatic EIS,9.07211,3.53769,0.000658791,251.189,0.0301917,-5.22799,0.0300661,0.00275104,1.66442,0.31789,0.00959765,8,0.0318486,3.53769
2,1,Potentiostatic EIS,9.16174,3.5377,0.000820572,199.526,0.0307772,-6.1686,0.030599,0.00330714,1.46649,0.317581,0.00977426,8,0.0400951,3.5377
2,1,Potentiostatic EIS,9.26097,3.5377,0.000860405,158.489,0.0314678,-7.03191,0.0312311,0.00385235,1.22498,0.313791,0.0098743,8,0.0504766,3.5377
2,1,Potentiostatic EIS,9.37392,3.5377,0.00116277,125.892,0.0322298,-7.80362,0.0319313,0.0043761,1.04832,0.308037,0.00992794,8,0.0635464,3.5377
2,1,Potentiostatic EIS,9.50416,3.5377,0.0011294,100,0.0330792,-8.45855,0.0327194,0.00486575,0.855114,0.300777,0.00994948,8,0.08,3.5377
2,1,Potentiostatic EIS,9.65597,3.53769,0.00104233,79.4327,0.0340183,-8.85689,0.0336127,0.0052377,0.695268,0.292581,0.00995312,8,0.100714,3.53769
2,1,Potentiostatic EIS,9.83695,3.5377,0.000900337,63.0956,0.035027,-9.10286,0.0345859,0.00554153,0.594092,0.284254,0.00995658,8,0.126792,3.5377
2,1,Potentiostatic EIS,10.0518,3.5377,0.00134791,50.1186,0.0360433,-9.24064,0.0355756,0.00578789,0.511455,0.271015,0.00976827,8,0.159621,3.5377
2,1,Potentiostatic EIS,10.3098,3.53767,0.000365176,39.8107,0.037102,-9.15863,0.036629,0.00590547,0.390835,0.264172,0.00980132,8,0.200951,3.53767
2,1,Potentiostatic EIS,10.4536,3.5377,-0.000779611,31.6228,0.0380659,-9.08481,0.0375884,0.00601046,0.731434,0.260226,0.00990579,2,0.0632456,3.5377
2,1,Potentiostatic EIS,10.6155,3.5377,0.000269022,25.1188,0.0391185,-8.76022,0.0386621,0.00595773,0.732396,0.2471,0.00966607,2,0.0796217,3.5377
2,1,Potentiostatic EIS,10.815,3.53769,0.000124056,19.9526,0.0400884,-8.48963,0.0396492,0.00591827,0.72047,0.243751,0.00977157,2,0.100238,3.53769
2,1,Potentiostatic EIS,11.0619,3.53769,3.35146e-05,15.8489,0.0410709,-8.1024,0.0406609,0.00578864,0.733005,0.239488,0.00983595,2,0.126192,3.53769
2,1,Potentiostatic EIS,11.3686,3.5377,0.000207657,12.5892,0.0419917,-7.69171,0.0416139,0.00562029,0.504854,0.235299,0.00988057,2,0.158866,3.5377
2,1,Potentiostatic EIS,11.7501,3.53771,0.000145074,9.99998,0.0428979,-7.19784,0.0425598,0.00537492,0.217273,0.230942,0.00990691,2,0.2,3.53771
2,1,Potentiostatic EIS,12.2251,3.5377,-0.000241819,7.94328,0.0437353,-6.63477,0.0434424,0.00505318,0.209982,0.227059,0.00993048,2,0.251785,3.5377
2,1,Potentiostatic EIS,12.8183,3.5377,-0.000119056,6.30957,0.0444696,-6.05613,0.0442215,0.00469167,0.190389,0.223382,0.00993373,2,0.316979,3.5377
2,1,Potentiostatic EIS,13.5582,3.5377,-6.83063e-05,5.01186,0.0450917,-5.47236,0.0448862,0.00430019,0.175221,0.220716,0.00995242,2,0.399053,3.5377
2,1,Potentiostatic EIS,14.4847,3.53769,-9.19474e-05,3.98106,0.0456151,-4.90722,0.0454479,0.00390203,0.174296,0.218243,0.00995516,2,0.502378,3.53769
2,1,Potentiostatic EIS,15.6496,3.53769,-0.000525004,3.16227,0.0460652,-4.35194,0.0459324,0.00349556,0.184421,0.216036,0.00995175,2,0.632458,3.53769
2,1,Potentiostatic EIS,17.1126,3.53769,-0.000469202,2.51188,0.0464233,-3.9044,0.0463156,0.00316106,0.18061,0.214548,0.00996002,2,0.796216,3.53769
2,1,Potentiostatic EIS,18.9516,3.53769,-0.000334988,1.99526,0.0467219,-3.49217,0.0466351,0.00284593,0.18076,0.213183,0.00996028,2,1.00238,3.53769
2,1,Potentiostatic EIS,21.2622,3.53769,-0.000716572,1.58489,0.0469534,-3.25122,0.0468779,0.00266292,0.153978,0.212152,0.00996127,2,1.26192,3.53769
2,1,Potentiostatic EIS,24.1665,3.53769,-0.000678062,1.25892,0.0476182,-3.05738,0.0475504,0.00253977,0.306551,0.209345,0.00996863,2,1.58866,3.53769
2,1,Potentiostatic EIS,27.8182,3.53768,-0.000362793,0.999998,0.0474237,-2.95096,0.0473608,0.00244142,0.184694,0.210067,0.00996212,2,2,3.53768
2,1,Potentiostatic EIS,32.4128,3.53769,-0.00083197,0.794327,0.0474736,-2.94941,0.0474107,0.00244272,0.171216,0.209742,0.00995719,2,2.51785,3.53769
2,1,Potentiostatic EIS,38.1919,3.53769,-0.000447008,0.630956,0.0475982,-3.04779,0.0475308,0.00253074,0.180753,0.209361,0.00996519,2,3.16979,3.53769
2,1,Potentiostatic EIS,45.4661,3.53768,-0.000246364,0.501186,0.0476876,-3.20559,0.047613,0.00266664,0.237243,0.209003,0.00996679,2,3.99054,3.53768
2,1,Potentiostatic EIS,52.7558,3.53768,-0.000390003,0.5,0.0476176,-3.21127,0.0475428,0.00266744,0.206769,0.209301,0.00996641,2,4,3.53768