Folder: feature-extraction-paper-2024/Data/P180/P180_03/EIS_08_P180_03_2

Note: README.md
# feature-extraction-paper-2024
Repository for code used and referenced in 2024 feature extraction paper

File: 2_EIS_08_P180_03_2 20230828 105700.csv
Step number,Repeats,Step name,Elapsed Time  (s),DC Working Electrode (V),DC Current (A),Frequency (Hz),|Z| (Ohms),Phase (deg),Z' (Ohms),-Z" (Ohms),THD (%),Amplitude (A),Amplitude (V),No of Cycles,Duration of Each Frequency (s),IR Compensated DC Working Electrode (V)
2,1,Potentiostatic EIS,0,3.57161,-0.0106045,1000000,1.52638,85.9841,0.106897,-1.52264,0.834018,0.0065787,0.0100416,1430,0.00143,3.57161
2,1,Potentiostatic EIS,0.251901,3.57148,-0.0135266,794328,1.2313,85.5689,0.0951313,-1.22762,1.17885,0.00812247,0.0100013,1445,0.00181915,3.57148
2,1,Potentiostatic EIS,0.511563,3.5714,-0.0150744,630957.375,0.986884,85.0541,0.0850847,-0.98321,1.11004,0.00997504,0.00984395,1355,0.00214753,3.5714
2,1,Potentiostatic EIS,0.804142,3.57133,-0.0162828,501187.25,0.792569,84.9053,0.0703824,-0.789438,1.1736,0.0126013,0.00998747,1385,0.00276344,3.57133
2,1,Potentiostatic EIS,1.10697,3.57124,-0.0180421,398107,0.63494,83.9326,0.0671126,-0.631383,1.40723,0.0156966,0.00996644,1400,0.00351664,3.57124
2,1,Potentiostatic EIS,1.4374,3.57113,-0.0200918,316228,0.508339,83.4527,0.0579627,-0.505024,1.75486,0.0195343,0.00993007,1370,0.00433232,3.57113
2,1,Potentiostatic EIS,1.81534,3.57106,-0.0219927,251189,0.410653,82.4438,0.0540006,-0.407087,1.87873,0.0243319,0.00999201,1340,0.00533464,3.57106
2,1,Potentiostatic EIS,2.23008,3.57092,-0.024378,199526,0.328582,81.7953,0.046892,-0.325219,1.97223,0.029302,0.00962822,1355,0.00679109,3.57092
2,1,Potentiostatic EIS,2.73298,3.57079,-0.0265711,158489,0.265569,80.4948,0.0438554,-0.261923,2.15766,0.0375081,0.00996103,1360,0.00858102,3.57079
2,1,Potentiostatic EIS,3.31722,3.57065,-0.0293542,125893,0.215422,79.3018,0.03999,-0.211678,2.02725,0.0463896,0.00999332,1370,0.0108823,3.57065
2,1,Potentiostatic EIS,4.03716,3.5705,-0.0313495,100000,0.1738,77.8141,0.0366864,-0.169884,2.18441,0.0574247,0.00998042,1370,0.0137,3.5705
2,1,Potentiostatic EIS,5.13606,3.5712,-0.0144409,79432.8,0.140894,75.817,0.034522,-0.1366,5.56953,0.0710319,0.010008,1365,0.0171843,3.5712
2,1,Potentiostatic EIS,5.35185,3.57119,-0.0147914,63095.7,0.114443,73.7278,0.032067,-0.109858,4.65897,0.0866794,0.00991986,1290,0.0204451,3.57119
2,1,Potentiostatic EIS,5.57382,3.57119,-0.0147101,50118.75,0.0937757,71.0905,0.0303903,-0.0887148,5.16659,0.105559,0.00989879,1025,0.0204514,3.57119
2,1,Potentiostatic EIS,5.79763,3.57119,-0.0145383,39810.7,0.0772188,68.08,0.0288266,-0.0716364,5.69206,0.128235,0.00990226,815,0.0204719,3.57119
2,1,Potentiostatic EIS,6.02481,3.5712,-0.0141196,31622.8,0.0642867,64.4148,0.0277624,-0.057983,6.46816,0.15548,0.00999537,645,0.0203967,3.5712
2,1,Potentiostatic EIS,6.25056,3.5715,-0.00665994,25118.9,0.0538102,60.3782,0.0265969,-0.0467776,6.69052,0.186017,0.0100096,510,0.0203034,3.5715
2,1,Potentiostatic EIS,6.47064,3.57158,-0.00477474,19952.6,0.0455001,55.6895,0.0256473,-0.0375829,6.87403,0.223518,0.0101696,405,0.0202981,3.57158
2,1,Potentiostatic EIS,6.70978,3.57164,-0.00334693,15848.9,0.0388892,50.4606,0.0247572,-0.0299908,6.73623,0.255808,0.00994817,320,0.0201906,3.57164
2,1,Potentiostatic EIS,6.94377,3.57166,-0.00343966,12589.2,0.0342158,44.7936,0.0242812,-0.0241069,6.40279,0.293208,0.0100323,255,0.0202554,3.57166
2,1,Potentiostatic EIS,7.24973,3.57165,-0.00175043,9999.98,0.0307688,38.988,0.0239159,-0.0193584,2.82228,0.323998,0.00996901,307,0.0307001,3.57165
2,1,Potentiostatic EIS,7.50934,3.57166,-0.00145562,7943.27,0.028179,33.7619,0.0234268,-0.0156603,3.28529,0.360833,0.0101679,244,0.0307178,3.57166
2,1,Potentiostatic EIS,7.72205,3.57169,-0.000801094,6309.57,0.0254046,28.0874,0.0224128,-0.0119609,3.72461,0.377621,0.00959333,193,0.0305885,3.57169
2,1,Potentiostatic EIS,7.93532,3.57171,-0.000463902,5011.87,0.0244542,20.8862,0.0228474,-0.00871826,3.638,0.42851,0.0104789,153,0.0305276,3.57171
2,1,Potentiostatic EIS,8.14835,3.57175,0.000406047,3981.07,0.0240756,15.9165,0.0231526,-0.00660242,3.49899,0.426339,0.0102644,122,0.0306451,3.57175
2,1,Potentiostatic EIS,8.31733,3.57179,0.00135106,3162.27,0.0238017,11.8439,0.023295,-0.00488522,3.40676,0.375989,0.0089492,97,0.0306742,3.57179
2,1,Potentiostatic EIS,8.48725,3.57178,0.00102649,2511.88,0.0237258,8.47714,0.0234666,-0.00349754,3.10864,0.441804,0.0104822,77,0.0306543,3.57178
2,1,Potentiostatic EIS,8.65629,3.5718,0.00139692,1995.26,0.0237716,5.61123,0.0236577,-0.00232434,2.85034,0.431754,0.0102635,61,0.0305725,3.5718
2,1,Potentiostatic EIS,8.82392,3.57181,0.0016711,1584.89,0.023901,3.27866,0.0238619,-0.00136695,2.67409,0.422797,0.0101053,48,0.030286,3.57181
2,1,Potentiostatic EIS,8.94921,3.57181,0.001518,1258.92,0.0240924,1.34698,0.0240858,-0.000566344,2.53815,0.407569,0.00981932,38,0.0301845,3.57181
2,1,Potentiostatic EIS,9.0743,3.57183,0.00185686,999.999,0.0243302,-0.24208,0.02433,0.000102797,2.4201,0.422189,0.010272,30,0.03,3.57183
2,1,Potentiostatic EIS,9.1989,3.57184,0.00212509,794.328,0.0246105,-1.61053,0.0246007,0.000691687,2.35169,0.412181,0.010144,24,0.0302142,3.57184
2,1,Potentiostatic EIS,9.32304,3.57185,0.00238673,630.956,0.0249147,-2.82011,0.0248845,0.00122581,2.27219,0.404471,0.0100773,19,0.030113,3.57185
2,1,Potentiostatic EIS,9.4473,3.57186,0.00289009,501.187,0.025259,-3.92562,0.0251997,0.00172926,2.16712,0.39707,0.0100296,15,0.029929,3.57186
2,1,Potentiostatic EIS,9.52757,3.57185,0.00262749,398.107,0.0256508,-4.90454,0.0255569,0.00219304,2.10856,0.343042,0.00879931,12,0.0301427,3.57185
2,1,Potentiostatic EIS,9.60676,3.57184,0.00273355,316.228,0.0260929,-5.86497,0.0259563,0.00266629,1.92101,0.355834,0.00928476,9,0.0284605,3.57184
2,1,Potentiostatic EIS,9.68757,3.57185,0.00258612,251.189,0.0266125,-6.77994,0.0264264,0.00314178,1.74919,0.360479,0.00959327,8,0.0318486,3.57185
2,1,Potentiostatic EIS,9.77665,3.57186,0.00270244,199.526,0.0272046,-7.55312,0.0269686,0.00357592,1.5577,0.359549,0.0097814,8,0.0400951,3.57186
2,1,Potentiostatic EIS,9.87676,3.57185,0.00258176,158.489,0.0278716,-8.32093,0.0275782,0.00403352,1.32177,0.354717,0.00988656,8,0.0504766,3.57185
2,1,Potentiostatic EIS,9.99076,3.57184,0.00277916,125.892,0.0286301,-8.98681,0.0282787,0.00447223,1.14606,0.347196,0.00994026,8,0.0635464,3.57184
2,1,Potentiostatic EIS,10.1202,3.57185,0.00246061,100,0.0294878,-9.46115,0.0290867,0.00484718,0.916912,0.337905,0.0099641,8,0.08,3.57185
2,1,Potentiostatic EIS,10.2715,3.57185,0.00258959,79.4327,0.0303931,-9.79323,0.0299502,0.00516966,0.774376,0.327824,0.00996359,8,0.100714,3.57185
2,1,Potentiostatic EIS,10.595,3.57186,0.00214171,63.0956,0.0313689,-9.91255,0.0309006,0.0054,0.652868,0.318612,0.00999451,8,0.126792,3.57186
2,1,Potentiostatic EIS,10.8103,3.57185,0.00307104,50.1186,0.032338,-9.995,0.0318472,0.00561265,0.534051,0.302883,0.00979464,8,0.159621,3.57185
2,1,Potentiostatic EIS,11.0694,3.57182,0.00181641,39.8107,0.0333196,-9.78828,0.0328345,0.0056646,0.425832,0.294603,0.00981606,8,0.200951,3.57182
2,1,Potentiostatic EIS,11.2129,3.57185,0.000644733,31.6228,0.0342432,-9.60848,0.0337628,0.00571569,0.326727,0.289447,0.00991169,2,0.0632456,3.57185
2,1,Potentiostatic EIS,11.375,3.57185,0.00187604,25.1188,0.0352373,-9.20994,0.0347831,0.00563982,0.281482,0.274283,0.00966498,2,0.0796217,3.57185
2,1,Potentiostatic EIS,11.5746,3.57185,0.00181798,19.9526,0.036168,-8.7706,0.0357451,0.00551485,0.254424,0.27021,0.00977309,2,0.100238,3.57185
2,1,Potentiostatic EIS,11.8216,3.57185,0.00183883,15.8489,0.03708,-8.33742,0.0366881,0.00537669,0.250185,0.26526,0.00983576,2,0.126192,3.57185
2,1,Potentiostatic EIS,12.128,3.57185,0.00169899,12.5892,0.0379193,-7.81672,0.037567,0.0051572,0.227085,0.260561,0.00988027,2,0.158866,3.57185
2,1,Potentiostatic EIS,12.5096,3.57186,0.00168827,9.99998,0.0387161,-7.23689,0.0384076,0.00487714,0.216812,0.255806,0.00990381,2,0.2,3.57186
2,1,Potentiostatic EIS,12.9847,3.57185,0.00140377,7.94328,0.0394478,-6.60555,0.0391859,0.00453781,0.192496,0.251601,0.00992511,2,0.251785,3.57185
2,1,Potentiostatic EIS,13.5783,3.57186,0.00139136,6.30957,0.0400728,-5.9657,0.0398558,0.00416489,0.201094,0.247778,0.00992916,2,0.316979,3.57186
2,1,Potentiostatic EIS,14.3191,3.57185,0.00125137,5.01186,0.0406214,-5.35089,0.0404444,0.00378815,0.181557,0.244822,0.00994499,2,0.399053,3.57185
2,1,Potentiostatic EIS,15.2472,3.57186,0.00135006,3.98106,0.0410674,-4.76087,0.0409257,0.00340849,0.174206,0.242404,0.00995492,2,0.502378,3.57186
2,1,Potentiostatic EIS,16.4128,3.57185,0.000928262,3.16227,0.0414495,-4.24991,0.0413355,0.00307169,0.196282,0.240169,0.0099549,2,0.632458,3.57185
2,1,Potentiostatic EIS,17.8764,3.57185,0.000804196,2.51188,0.0417516,-3.80947,0.0416594,0.00277393,0.205955,0.238477,0.00995679,2,0.796216,3.57185
2,1,Potentiostatic EIS,19.7156,3.57186,0.000971995,1.99526,0.0420105,-3.46999,0.0419335,0.00254271,0.18735,0.236931,0.0099536,2,1.00238,3.57186
2,1,Potentiostatic EIS,22.0256,3.57187,0.000461574,1.58489,0.042212,-3.20251,0.042146,0.00235818,0.156639,0.235865,0.00995633,2,1.26192,3.57187
2,1,Potentiostatic EIS,24.9303,3.57187,0.000495753,1.25892,0.0424188,-3.03394,0.0423593,0.00224512,0.18432,0.234969,0.00996711,2,1.58866,3.57187
2,1,Potentiostatic EIS,28.5821,3.57186,0.000470956,0.999998,0.0425638,-2.96143,0.042507,0.00219901,0.168654,0.233909,0.00995603,2,2,3.57186
2,1,Potentiostatic EIS,33.1765,3.57186,-0.00027578,0.794327,0.0427442,-2.97101,0.0426867,0.00221546,0.186765,0.232985,0.00995874,2,2.51785,3.57186
2,1,Potentiostatic EIS,38.956,3.57185,3.95182e-05,0.630956,0.0429542,-3.06116,0.0428929,0.00229383,0.195839,0.231941,0.00996283,2,3.16979,3.57185
2,1,Potentiostatic EIS,46.2297,3.57185,0.000241647,0.501186,0.0431358,-3.24795,0.0430665,0.00244395,0.165537,0.230972,0.00996316,2,3.99054,3.57185
2,1,Potentiostatic EIS,53.5198,3.57185,2.71812e-05,0.5,0.0431149,-3.24733,0.0430457,0.0024423,0.17704,0.231007,0.00995983,2,4,3.57185