Folder: feature-extraction-paper-2024/Data/P180/P180_03/EIS_06_P180_03_1

Note: README.md
# feature-extraction-paper-2024
Repository for code used and referenced in 2024 feature extraction paper

File: 2_EIS_06_P180_03_1 20230824 141341.csv
Step number,Repeats,Step name,Elapsed Time  (s),DC Working Electrode (V),DC Current (A),Frequency (Hz),|Z| (Ohms),Phase (deg),Z' (Ohms),-Z" (Ohms),THD (%),Amplitude (A),Amplitude (V),No of Cycles,Duration of Each Frequency (s),IR Compensated DC Working Electrode (V)
2,1,Potentiostatic EIS,0,3.50335,-0.0122277,1000000,3.2481,88.1475,0.104997,-3.2464,1.12702,0.00305809,0.00993295,1430,0.00143,3.50335
2,1,Potentiostatic EIS,0.231468,3.5033,-0.0130839,794328,2.58384,87.8232,0.098142,-2.58197,1.12675,0.00383264,0.00990293,1445,0.00181915,3.5033
2,1,Potentiostatic EIS,0.468929,3.50326,-0.0137103,630957.375,2.05552,87.4872,0.0901188,-2.05354,0.990612,0.00475595,0.00977607,1355,0.00214753,3.50326
2,1,Potentiostatic EIS,0.741095,3.50323,-0.0139957,501187.25,1.63891,87.3723,0.0751385,-1.63719,1.09811,0.00607383,0.00995455,1385,0.00276344,3.50323
2,1,Potentiostatic EIS,1.02292,3.50318,-0.0149547,398107,1.30986,86.6115,0.0774192,-1.30757,0.958571,0.00759571,0.00994935,1400,0.00351664,3.50318
2,1,Potentiostatic EIS,1.32271,3.50315,-0.0153003,316228,1.04215,86.3385,0.0665534,-1.04003,1.09934,0.00955042,0.00995307,1370,0.00433232,3.50315
2,1,Potentiostatic EIS,1.68431,3.50308,-0.0159725,251189,0.838543,85.5835,0.0645724,-0.836053,1.06441,0.011871,0.00995439,1340,0.00533464,3.50308
2,1,Potentiostatic EIS,2.09139,3.50301,-0.0172075,199526,0.667011,85.3506,0.0540668,-0.664817,1.36401,0.0148753,0.00992198,1355,0.00679109,3.50301
2,1,Potentiostatic EIS,2.55247,3.50297,-0.01762,158489,0.536518,84.4403,0.0519798,-0.533994,1.23385,0.0185869,0.00997227,1360,0.00858102,3.50297
2,1,Potentiostatic EIS,3.30808,3.5029,-0.0186561,125893,0.431162,83.7225,0.047145,-0.428577,1.53284,0.023092,0.00995639,1370,0.0108823,3.5029
2,1,Potentiostatic EIS,3.92515,3.50283,-0.0193845,100000,0.345573,82.7514,0.0436024,-0.342811,1.77718,0.0288624,0.00997411,1370,0.0137,3.50283
2,1,Potentiostatic EIS,4.59608,3.50277,-0.0199979,79432.8,0.278053,81.6462,0.0403968,-0.275103,2.19365,0.0359388,0.00999286,1365,0.0171843,3.50277
2,1,Potentiostatic EIS,4.84069,3.5027,-0.0214968,63095.7,0.222605,80.4943,0.0367623,-0.219548,1.65327,0.0447889,0.00997032,1290,0.0204451,3.5027
2,1,Potentiostatic EIS,5.09219,3.50264,-0.0224789,50118.75,0.180569,78.5245,0.035924,-0.17696,1.85825,0.0546131,0.00986159,1025,0.0204514,3.50264
2,1,Potentiostatic EIS,5.43717,3.50263,-0.0218137,39810.7,0.145229,76.8163,0.033123,-0.141401,1.84795,0.0672281,0.00976323,815,0.0204719,3.50263
2,1,Potentiostatic EIS,5.77672,3.50303,-0.0132314,31622.8,0.118404,74.5666,0.0315094,-0.114134,4.46414,0.0824421,0.00976104,645,0.0203967,3.50303
2,1,Potentiostatic EIS,6.00341,3.50348,-0.00350712,25118.9,0.0962957,71.7029,0.0302315,-0.0914271,5.95951,0.104521,0.010065,510,0.0203034,3.50348
2,1,Potentiostatic EIS,6.22312,3.50347,-0.00337851,19952.6,0.0785505,68.4202,0.0288906,-0.0730447,6.45833,0.128026,0.0100566,405,0.0202981,3.50347
2,1,Potentiostatic EIS,6.43149,3.50352,-0.00245623,15848.9,0.0644107,64.6701,0.0275568,-0.0582183,6.88737,0.150973,0.00972408,320,0.0201906,3.50352
2,1,Potentiostatic EIS,6.63783,3.50352,-0.00208383,12589.2,0.0539274,59.9782,0.0269815,-0.0466922,7.08478,0.182557,0.00984492,255,0.0202554,3.50352
2,1,Potentiostatic EIS,6.94383,3.5037,-0.00203353,9999.98,0.04578,54.7392,0.0264287,-0.0373808,3.43544,0.218218,0.00999001,307,0.0307001,3.5037
2,1,Potentiostatic EIS,7.15756,3.50371,-0.0022488,7943.27,0.0396035,49.2519,0.0258506,-0.0300031,4.15966,0.268111,0.0106181,244,0.0307178,3.50371
2,1,Potentiostatic EIS,7.37083,3.50375,-0.00144793,6309.57,0.0340715,43.2717,0.0248078,-0.0233546,4.72562,0.308733,0.010519,193,0.0305885,3.50375
2,1,Potentiostatic EIS,7.5826,3.50378,-0.000710296,5011.87,0.0308294,35.1952,0.0251936,-0.0177689,4.79214,0.33518,0.0103334,153,0.0305276,3.50378
2,1,Potentiostatic EIS,7.7956,3.50379,-0.000545309,3981.07,0.0289397,28.3558,0.0254674,-0.0137448,4.55043,0.35173,0.010179,122,0.0306451,3.50379
2,1,Potentiostatic EIS,7.96614,3.5038,-0.000439511,3162.27,0.0276943,22.3497,0.0256139,-0.010531,4.25981,0.354429,0.00981564,97,0.0306742,3.5038
2,1,Potentiostatic EIS,8.13451,3.50379,-0.00043777,2511.88,0.026981,17.1235,0.025785,-0.00794408,3.78215,0.386613,0.0104312,77,0.0306543,3.50379
2,1,Potentiostatic EIS,8.30312,3.50381,4.41532e-05,1995.26,0.0266295,12.604,0.0259878,-0.00581088,3.41001,0.383926,0.0102238,61,0.0305725,3.50381
2,1,Potentiostatic EIS,8.42761,3.50381,0.000107881,1584.89,0.0265477,8.87821,0.0262296,-0.00409722,2.99122,0.3295,0.00874745,48,0.030286,3.50381
2,1,Potentiostatic EIS,8.55195,3.50381,7.03922e-05,1258.92,0.0265912,5.81459,0.0264544,-0.00269394,2.68906,0.381322,0.0101398,38,0.0301845,3.50381
2,1,Potentiostatic EIS,8.67489,3.50383,0.000303118,999.999,0.0267863,3.28312,0.0267424,-0.00153405,2.48579,0.382547,0.010247,30,0.03,3.50383
2,1,Potentiostatic EIS,8.79953,3.50383,0.000318387,794.328,0.0270604,1.2108,0.0270543,-0.000571808,2.29541,0.374347,0.01013,24,0.0302142,3.50383
2,1,Potentiostatic EIS,8.92334,3.50383,0.000482267,630.956,0.027381,-0.533443,0.0273798,0.000254923,2.1953,0.367809,0.010071,19,0.030113,3.50383
2,1,Potentiostatic EIS,9.04685,3.50383,0.000605494,501.187,0.0277394,-2.01986,0.0277221,0.000977698,2.09601,0.361463,0.0100267,15,0.029929,3.50383
2,1,Potentiostatic EIS,9.12697,3.50384,0.000588114,398.107,0.0281683,-3.31521,0.0281212,0.00162895,2.02547,0.313624,0.00883428,12,0.0301427,3.50384
2,1,Potentiostatic EIS,9.20622,3.50384,0.000714676,316.228,0.0286346,-4.45698,0.028548,0.00222521,1.82514,0.324478,0.0092913,9,0.0284605,3.50384
2,1,Potentiostatic EIS,9.28849,3.50384,0.000950241,251.189,0.0292026,-5.44246,0.0290709,0.00276975,1.65968,0.328462,0.00959193,8,0.0318486,3.50384
2,1,Potentiostatic EIS,9.3815,3.50385,0.00113986,199.526,0.0298262,-6.30874,0.0296456,0.00327749,1.46082,0.327566,0.00977005,8,0.0400951,3.50385
2,1,Potentiostatic EIS,9.48246,3.50385,0.00111977,158.489,0.0304966,-7.02284,0.0302678,0.00372866,1.248,0.323565,0.00986762,8,0.0504766,3.50385
2,1,Potentiostatic EIS,9.59572,3.50385,0.0010992,125.892,0.0312593,-7.66662,0.0309799,0.00417026,1.07899,0.317494,0.00992464,8,0.0635464,3.50385
2,1,Potentiostatic EIS,9.72489,3.50384,0.000976535,100,0.0320827,-8.12691,0.0317605,0.00453541,0.86786,0.310026,0.00994645,8,0.08,3.50384
2,1,Potentiostatic EIS,9.87629,3.50382,0.000786166,79.4327,0.0329669,-8.39295,0.0326138,0.00481189,0.711893,0.301937,0.00995394,8,0.100714,3.50382
2,1,Potentiostatic EIS,10.0561,3.50383,0.00060609,63.0956,0.0338908,-8.52312,0.0335166,0.00502291,0.593262,0.293767,0.009956,8,0.126792,3.50383
2,1,Potentiostatic EIS,10.2711,3.50383,0.00132986,50.1186,0.0347943,-8.56736,0.034406,0.00518338,0.480162,0.280411,0.00975669,8,0.159621,3.50383
2,1,Potentiostatic EIS,10.5289,3.50382,0.000469728,39.8107,0.0357097,-8.40962,0.0353258,0.00522252,0.389797,0.274214,0.00979211,8,0.200951,3.50382
2,1,Potentiostatic EIS,10.6727,3.50382,-0.000890524,31.6228,0.0365701,-8.2233,0.0361941,0.00523068,0.314924,0.271034,0.00991191,2,0.0632456,3.50382
2,1,Potentiostatic EIS,10.8342,3.50383,0.000173202,25.1188,0.037461,-7.8212,0.0371125,0.00509778,0.264042,0.257779,0.00965654,2,0.0796217,3.50383
2,1,Potentiostatic EIS,11.0334,3.50383,9.59667e-06,19.9526,0.0383111,-7.46586,0.0379863,0.00497796,0.218009,0.255063,0.00977175,2,0.100238,3.50383
2,1,Potentiostatic EIS,11.2806,3.50384,0.000109457,15.8489,0.0390645,-7.04478,0.0387695,0.00479106,0.222062,0.251793,0.0098362,2,0.126192,3.50384
2,1,Potentiostatic EIS,11.5871,3.50385,0.000312377,12.5892,0.0398175,-6.59916,0.0395537,0.00457593,0.202367,0.248089,0.00987828,2,0.158866,3.50385
2,1,Potentiostatic EIS,11.9684,3.50385,5.9656e-05,9.99998,0.0404895,-6.15555,0.0402561,0.00434161,0.201283,0.244526,0.00990072,2,0.2,3.50385
2,1,Potentiostatic EIS,12.4433,3.50384,0.000932554,7.94328,0.0411156,-5.61562,0.0409182,0.00402333,0.190919,0.24136,0.00992364,2,0.251785,3.50384
2,1,Potentiostatic EIS,13.0364,3.50384,0.000385305,6.30957,0.0416782,-5.16062,0.0415093,0.00374888,0.181515,0.23868,0.00994775,2,0.316979,3.50384
2,1,Potentiostatic EIS,13.7792,3.50385,0.000182386,5.01186,0.042168,-4.6843,0.0420271,0.00344367,0.193817,0.235889,0.00994696,2,0.399053,3.50385
2,1,Potentiostatic EIS,14.7063,3.50384,-2.01678e-05,3.98106,0.0425966,-4.26974,0.0424784,0.00317141,0.171299,0.233524,0.00994734,2,0.502378,3.50384
2,1,Potentiostatic EIS,15.8713,3.50385,4.80952e-06,3.16227,0.0429469,-3.84715,0.0428501,0.00288152,0.180705,0.23187,0.00995808,2,0.632458,3.50385
2,1,Potentiostatic EIS,17.3345,3.50384,-0.000619226,2.51188,0.0432624,-3.50872,0.0431813,0.00264768,0.181315,0.230075,0.00995361,2,0.796216,3.50384
2,1,Potentiostatic EIS,19.1733,3.50384,-0.00054022,1.99526,0.0435184,-3.25944,0.043448,0.00247434,0.177841,0.228977,0.0099647,2,1.00238,3.50384
2,1,Potentiostatic EIS,21.4836,3.50383,-0.000546505,1.58489,0.043727,-3.06678,0.0436644,0.00233939,0.14323,0.227712,0.00995717,2,1.26192,3.50383
2,1,Potentiostatic EIS,24.388,3.50384,-0.000894947,1.25892,0.0439495,-2.95448,0.0438911,0.00226527,0.148046,0.226487,0.009954,2,1.58866,3.50384
2,1,Potentiostatic EIS,28.04,3.50384,-0.000862315,0.999998,0.0441118,-2.92676,0.0440542,0.00225232,0.170287,0.225718,0.00995683,2,2,3.50384
2,1,Potentiostatic EIS,32.6347,3.50384,-0.000625938,0.794327,0.0442843,-2.95466,0.0442255,0.00228267,0.16701,0.224981,0.00996312,2,2.51785,3.50384
2,1,Potentiostatic EIS,38.4151,3.50384,-0.00145724,0.630956,0.0444553,-3.10533,0.04439,0.00240822,0.190587,0.224126,0.00996358,2,3.16979,3.50384
2,1,Potentiostatic EIS,45.6894,3.50384,-0.00069234,0.501186,0.0446618,-3.34699,0.0445856,0.00260748,0.126274,0.223124,0.00996513,2,3.99054,3.50384
2,1,Potentiostatic EIS,52.9796,3.50385,-0.000856474,0.5,0.0446449,-3.35785,0.0445682,0.00261494,0.133805,0.223233,0.00996622,2,4,3.50385