Folder: feature-extraction-paper-2024/Data/P180/P180_03/EIS_08_P180_03_1

Note: README.md
# feature-extraction-paper-2024
Repository for code used and referenced in 2024 feature extraction paper

File: 2_EIS_08_P180_03_1 20230828 105132.csv
Step number,Repeats,Step name,Elapsed Time  (s),DC Working Electrode (V),DC Current (A),Frequency (Hz),|Z| (Ohms),Phase (deg),Z' (Ohms),-Z" (Ohms),THD (%),Amplitude (A),Amplitude (V),No of Cycles,Duration of Each Frequency (s),IR Compensated DC Working Electrode (V)
2,1,Potentiostatic EIS,0,3.52432,-0.00841559,1000000,3.33101,87.9571,0.118741,-3.32889,1.09375,0.00299013,0.00996063,1430,0.00143,3.52432
2,1,Potentiostatic EIS,0.233352,3.52429,-0.00921127,794328,2.64813,87.6574,0.108243,-2.64592,1.25009,0.0037452,0.00991802,1445,0.00181915,3.52429
2,1,Potentiostatic EIS,0.470666,3.52425,-0.00985168,630957.375,2.10727,87.3454,0.0975971,-2.10501,1.03172,0.00466587,0.00983218,1355,0.00214753,3.52425
2,1,Potentiostatic EIS,0.742207,3.5242,-0.0103642,501187.25,1.68235,87.296,0.0793677,-1.68048,1.09699,0.00591739,0.00995516,1385,0.00276344,3.5242
2,1,Potentiostatic EIS,1.02616,3.52418,-0.0109243,398107,1.34356,86.5925,0.0798571,-1.34118,1.14669,0.00741585,0.00996363,1400,0.00351664,3.52418
2,1,Potentiostatic EIS,1.32401,3.52415,-0.0113094,316228,1.07074,85.9906,0.0748658,-1.06812,1.08127,0.00926678,0.00992227,1370,0.00433232,3.52415
2,1,Potentiostatic EIS,1.65657,3.52411,-0.0119211,251189,0.860419,85.3101,0.0703508,-0.857539,1.07421,0.0115982,0.00997931,1340,0.00533464,3.52411
2,1,Potentiostatic EIS,2.03867,3.52406,-0.0127166,199526,0.685963,85.1555,0.0579308,-0.683512,1.14218,0.0140709,0.0096525,1355,0.00679109,3.52406
2,1,Potentiostatic EIS,2.50173,3.52401,-0.0135781,158489,0.550754,84.1515,0.0561211,-0.547887,1.24972,0.0180847,0.00996024,1360,0.00858102,3.52401
2,1,Potentiostatic EIS,3.03337,3.52393,-0.0150079,125893,0.443767,83.3074,0.0517178,-0.440743,1.19743,0.0224843,0.0099778,1370,0.0108823,3.52393
2,1,Potentiostatic EIS,3.70573,3.5239,-0.0153188,100000,0.35491,82.4299,0.0467554,-0.351817,1.68797,0.0280876,0.00996861,1370,0.0137,3.5239
2,1,Potentiostatic EIS,4.37374,3.52379,-0.0165924,79432.8,0.286402,81.0804,0.044406,-0.282938,2.02741,0.0348515,0.0099816,1365,0.0171843,3.52379
2,1,Potentiostatic EIS,4.61861,3.52376,-0.0179701,63095.7,0.229968,79.977,0.0400245,-0.226458,1.70864,0.0434494,0.00999199,1290,0.0204451,3.52376
2,1,Potentiostatic EIS,4.86799,3.5237,-0.0186863,50118.75,0.18551,77.8788,0.0389535,-0.181374,1.79404,0.053537,0.00993428,1025,0.0204514,3.5237
2,1,Potentiostatic EIS,5.17259,3.52369,-0.0184299,39810.7,0.150102,76.1133,0.036025,-0.145715,1.84105,0.0653928,0.0098155,815,0.0204719,3.52369
2,1,Potentiostatic EIS,5.56016,3.52412,-0.00845823,31622.8,0.122704,73.62,0.0346035,-0.117724,4.82866,0.0815517,0.0100068,645,0.0203967,3.52412
2,1,Potentiostatic EIS,5.78429,3.52445,-0.000224505,25118.9,0.100328,70.8478,0.0329156,-0.0947751,5.73115,0.100286,0.0100614,510,0.0203034,3.52445
2,1,Potentiostatic EIS,5.9885,3.5245,-4.78116e-05,19952.6,0.0820232,67.4805,0.0314147,-0.0757689,6.14939,0.119057,0.00976512,405,0.0202981,3.5245
2,1,Potentiostatic EIS,6.19483,3.52452,0.000346391,15848.9,0.0675211,63.4978,0.03013,-0.0604258,6.68222,0.144977,0.00978874,320,0.0201906,3.52452
2,1,Potentiostatic EIS,6.40013,3.52458,0.000971156,12589.2,0.0566265,58.8368,0.0293029,-0.0484552,6.74324,0.175541,0.00994028,255,0.0202554,3.52458
2,1,Potentiostatic EIS,6.66175,3.52463,0.00090381,9999.98,0.0483521,53.6053,0.0286895,-0.0389209,3.3652,0.206659,0.00999241,307,0.0307001,3.52463
2,1,Potentiostatic EIS,6.87801,3.5246,0.00030406,7943.27,0.0420122,48.1547,0.0280273,-0.0312969,4.06644,0.251559,0.0105685,244,0.0307178,3.5246
2,1,Potentiostatic EIS,7.0896,3.52465,0.00103561,6309.57,0.0363653,42.1769,0.0269495,-0.0244164,4.62542,0.287201,0.0104442,193,0.0305885,3.52465
2,1,Potentiostatic EIS,7.30217,3.52466,0.00123305,5011.87,0.0329616,34.4438,0.0271828,-0.018643,4.69518,0.311499,0.0102675,153,0.0305276,3.52466
2,1,Potentiostatic EIS,7.46948,3.52468,0.00198487,3981.07,0.0310135,27.8742,0.0274152,-0.0144998,4.5494,0.277424,0.00860387,122,0.0306451,3.52468
2,1,Potentiostatic EIS,7.63673,3.52468,0.00186337,3162.27,0.0297456,22.068,0.0275664,-0.0111756,4.08522,0.351975,0.0104697,97,0.0306742,3.52468
2,1,Potentiostatic EIS,7.80632,3.52469,0.00194173,2511.88,0.0289642,17.0269,0.0276947,-0.00848134,3.62155,0.357835,0.0103644,77,0.0306543,3.52469
2,1,Potentiostatic EIS,7.97399,3.52468,0.00168765,1995.26,0.0285665,12.7048,0.0278671,-0.00628259,3.27625,0.356816,0.010193,61,0.0305725,3.52468
2,1,Potentiostatic EIS,8.09867,3.5247,0.00192724,1584.89,0.0284221,9.06774,0.0280669,-0.00447939,2.92567,0.323774,0.00920236,48,0.030286,3.5247
2,1,Potentiostatic EIS,8.22338,3.52471,0.00202288,1258.92,0.0284392,6.15728,0.0282751,-0.00305033,2.63605,0.364865,0.0103765,38,0.0301845,3.52471
2,1,Potentiostatic EIS,8.3472,3.52472,0.00212214,999.999,0.0285721,3.69888,0.0285125,-0.00184327,2.50243,0.357681,0.0102197,30,0.03,3.52472
2,1,Potentiostatic EIS,8.47255,3.52473,0.00273072,794.328,0.0288177,1.65457,0.0288057,-0.000832075,2.26361,0.350968,0.0101141,24,0.0302142,3.52473
2,1,Potentiostatic EIS,8.59661,3.52473,0.00245375,630.956,0.0291255,-0.0232757,0.0291255,1.18319e-05,2.14574,0.345273,0.0100562,19,0.030113,3.52473
2,1,Potentiostatic EIS,8.72101,3.52472,0.0028152,501.187,0.0294678,-1.50519,0.0294577,0.000774044,2.03898,0.340604,0.0100369,15,0.029929,3.52472
2,1,Potentiostatic EIS,8.80091,3.52472,0.00251576,398.107,0.0298714,-2.72009,0.0298377,0.0014176,1.9539,0.297507,0.00888694,12,0.0301427,3.52472
2,1,Potentiostatic EIS,8.88122,3.52471,0.00247752,316.228,0.0303267,-3.83159,0.0302589,0.00202655,1.77744,0.307404,0.00932253,9,0.0284605,3.52471
2,1,Potentiostatic EIS,8.96206,3.52471,0.00255511,251.189,0.0308406,-4.8288,0.0307311,0.00259612,1.60917,0.311029,0.00959232,8,0.0318486,3.52471
2,1,Potentiostatic EIS,9.05118,3.52472,0.0027587,199.526,0.0314592,-5.65259,0.0313063,0.00309862,1.42984,0.310346,0.00976324,8,0.0400951,3.52472
2,1,Potentiostatic EIS,9.15197,3.52472,0.00259426,158.489,0.0321267,-6.35187,0.0319295,0.00355431,1.17387,0.307,0.00986292,8,0.0504766,3.52472
2,1,Potentiostatic EIS,9.26531,3.52471,0.00279292,125.892,0.0328524,-6.94184,0.0326116,0.0039706,1.0082,0.301761,0.00991359,8,0.0635464,3.52471
2,1,Potentiostatic EIS,9.39534,3.52473,0.0029626,100,0.0336624,-7.37925,0.0333836,0.00432348,0.813671,0.295213,0.00993756,8,0.08,3.52473
2,1,Potentiostatic EIS,9.54818,3.52473,0.0030132,79.4327,0.0344995,-7.62749,0.0341942,0.00457919,0.67448,0.288273,0.00994527,8,0.100714,3.52473
2,1,Potentiostatic EIS,9.72723,3.52472,0.00284862,63.0956,0.0353728,-7.75092,0.0350496,0.00477062,0.550341,0.281153,0.00994517,8,0.126792,3.52472
2,1,Potentiostatic EIS,9.94208,3.52472,0.003154,50.1186,0.0362544,-7.77186,0.0359214,0.00490264,0.444299,0.27151,0.00984343,8,0.159621,3.52472
2,1,Potentiostatic EIS,10.2008,3.5247,0.00226174,39.8107,0.0371138,-7.60649,0.0367872,0.0049127,0.356252,0.265441,0.00985153,8,0.200951,3.5247
2,1,Potentiostatic EIS,10.3436,3.52471,0.00152214,31.6228,0.0379377,-7.4411,0.0376182,0.00491319,0.302737,0.261614,0.00992508,2,0.0632456,3.52471
2,1,Potentiostatic EIS,10.5066,3.52472,0.00233902,25.1188,0.0388021,-7.08798,0.0385055,0.00478792,0.265217,0.24941,0.00967763,2,0.0796217,3.52472
2,1,Potentiostatic EIS,10.7067,3.52472,0.00237238,19.9526,0.0395587,-6.75211,0.0392843,0.00465107,0.250893,0.247087,0.00977436,2,0.100238,3.52472
2,1,Potentiostatic EIS,10.9539,3.52472,0.00221463,15.8489,0.0403022,-6.339,0.0400558,0.0044498,0.21966,0.244099,0.00983772,2,0.126192,3.52472
2,1,Potentiostatic EIS,11.2606,3.52471,0.00194047,12.5892,0.0409412,-5.91248,0.0407234,0.00421731,0.249276,0.241235,0.00987643,2,0.158866,3.52471
2,1,Potentiostatic EIS,11.6422,3.52472,0.00216741,9.99998,0.0415626,-5.46966,0.0413733,0.00396169,0.175659,0.238444,0.00991038,2,0.2,3.52472
2,1,Potentiostatic EIS,12.1175,3.52471,0.00170235,7.94328,0.0421346,-5.03256,0.0419721,0.00369613,0.189659,0.235732,0.00993246,2,0.251785,3.52471
2,1,Potentiostatic EIS,12.7108,3.52473,0.00181252,6.30957,0.0426219,-4.58259,0.0424856,0.00340532,0.170335,0.233114,0.00993576,2,0.316979,3.52473
2,1,Potentiostatic EIS,13.4511,3.52472,0.00166476,5.01186,0.0430646,-4.17942,0.0429501,0.00313855,0.19407,0.231037,0.0099495,2,0.399053,3.52472
2,1,Potentiostatic EIS,14.3781,3.52472,0.00148288,3.98106,0.0434182,-3.7833,0.0433236,0.00286487,0.161255,0.229097,0.00994698,2,0.502378,3.52472
2,1,Potentiostatic EIS,15.5426,3.52473,0.0012873,3.16227,0.0437454,-3.42674,0.0436672,0.00261476,0.173949,0.227639,0.00995818,2,0.632458,3.52473
2,1,Potentiostatic EIS,17.0055,3.52472,0.00119618,2.51188,0.0440152,-3.13898,0.0439491,0.00241019,0.173969,0.226322,0.0099616,2,0.796216,3.52472
2,1,Potentiostatic EIS,18.8444,3.52472,0.00128006,1.99526,0.0442255,-2.87989,0.0441696,0.002222,0.162358,0.225099,0.00995509,2,1.00238,3.52472
2,1,Potentiostatic EIS,21.1543,3.52473,0.000626518,1.58489,0.0444334,-2.76679,0.0443816,0.00214483,0.178837,0.224189,0.00996148,2,1.26192,3.52473
2,1,Potentiostatic EIS,24.0585,3.52472,0.000700033,1.25892,0.044709,-2.65299,0.0446611,0.00206944,0.172606,0.22279,0.00996075,2,1.58866,3.52472
2,1,Potentiostatic EIS,27.7103,3.52473,0.000825024,0.999998,0.0447574,-2.66873,0.0447088,0.00208396,0.144309,0.222456,0.00995655,2,2,3.52473
2,1,Potentiostatic EIS,32.3047,3.52472,-3.67831e-05,0.794327,0.0449148,-2.74012,0.0448634,0.00214719,0.176196,0.22182,0.00996297,2,2.51785,3.52472
2,1,Potentiostatic EIS,38.084,3.52472,0.000304854,0.630956,0.045096,-2.89368,0.0450385,0.00227657,0.203691,0.221061,0.00996896,2,3.16979,3.52472
2,1,Potentiostatic EIS,45.3589,3.52472,0.000825882,0.501186,0.0453783,-3.13987,0.0453102,0.00248554,0.270024,0.219681,0.00996881,2,3.99054,3.52472
2,1,Potentiostatic EIS,52.6484,3.52472,0.00024424,0.5,0.045366,-3.12672,0.0452985,0.00247447,0.198885,0.219665,0.00996535,2,4,3.52472