Folder: feature-extraction-paper-2024/Data/P180/P180_03/EIS_04_P180_03_5

Note: README.md
# feature-extraction-paper-2024
Repository for code used and referenced in 2024 feature extraction paper

File: 2_EIS_04_P180_03_5 20230822 150956.csv
Step number,Repeats,Step name,Elapsed Time  (s),DC Working Electrode (V),DC Current (A),Frequency (Hz),|Z| (Ohms),Phase (deg),Z' (Ohms),-Z" (Ohms),THD (%),Amplitude (A),Amplitude (V),No of Cycles,Duration of Each Frequency (s),IR Compensated DC Working Electrode (V)
2,1,Potentiostatic EIS,0,3.47421,-0.00711754,1000000,3.69324,88.4872,0.0975002,-3.69195,1.10935,0.00267858,0.0098927,1430,0.00143,3.47421
2,1,Potentiostatic EIS,0.226176,3.47416,-0.00803128,794328,2.93851,88.1472,0.0950095,-2.93698,1.17172,0.00336712,0.00989414,1445,0.00181915,3.47416
2,1,Potentiostatic EIS,0.462115,3.47415,-0.00813636,630957.375,2.34227,87.4893,0.102606,-2.34003,1.0241,0.00425113,0.00995745,1355,0.00214753,3.47415
2,1,Potentiostatic EIS,0.712696,3.47411,-0.00885008,501187.25,1.86411,87.6153,0.0775618,-1.86249,1.14075,0.00521409,0.00972013,1385,0.00276344,3.47411
2,1,Potentiostatic EIS,0.995307,3.47406,-0.00973784,398107,1.48993,86.659,0.0868299,-1.4874,1.29705,0.00668894,0.00996607,1400,0.00351664,3.47406
2,1,Potentiostatic EIS,1.29133,3.47404,-0.010053,316228,1.18447,86.359,0.0752201,-1.18208,1.14932,0.00839013,0.00993787,1370,0.00433232,3.47404
2,1,Potentiostatic EIS,1.62057,3.47398,-0.0106978,251189,0.95,85.5077,0.0744089,-0.947082,1.18074,0.0104914,0.009967,1340,0.00533464,3.47398
2,1,Potentiostatic EIS,2.03409,3.4739,-0.0120018,199526,0.757169,85.4016,0.0607032,-0.754732,1.28777,0.0131176,0.00993224,1355,0.00679109,3.4739
2,1,Potentiostatic EIS,2.49591,3.4739,-0.0121452,158489,0.608681,84.374,0.0596719,-0.605749,1.21178,0.0163816,0.00997123,1360,0.00858102,3.4739
2,1,Potentiostatic EIS,3.02398,3.47379,-0.0134204,125893,0.48872,83.6324,0.0542021,-0.485705,1.39743,0.0204459,0.00999242,1370,0.0108823,3.47379
2,1,Potentiostatic EIS,3.80732,3.47372,-0.0142567,100000,0.389859,82.6963,0.0495624,-0.386696,1.55092,0.0255282,0.00995242,1370,0.0137,3.47372
2,1,Potentiostatic EIS,4.47402,3.47367,-0.0148242,79432.8,0.314064,81.4162,0.0468758,-0.310546,1.7517,0.0317882,0.00998355,1365,0.0171843,3.47367
2,1,Potentiostatic EIS,4.72014,3.47362,-0.016246,63095.7,0.252691,80.1063,0.0434176,-0.248933,1.62806,0.0395837,0.0100024,1290,0.0204451,3.47362
2,1,Potentiostatic EIS,4.97167,3.47352,-0.0173205,50118.75,0.204352,78.2358,0.0416643,-0.20006,1.87636,0.0490344,0.0100207,1025,0.0204514,3.47352
2,1,Potentiostatic EIS,5.22761,3.47349,-0.0176812,39810.7,0.164379,76.1328,0.0393971,-0.159588,1.82735,0.0605149,0.00994743,815,0.0204719,3.47349
2,1,Potentiostatic EIS,5.58057,3.47346,-0.0167042,31622.8,0.133899,73.4816,0.0380705,-0.128373,1.87598,0.0747924,0.0100146,645,0.0203967,3.47346
2,1,Potentiostatic EIS,5.89578,3.47423,-0.00282807,25118.9,0.109529,70.5619,0.0364501,-0.103286,4.62228,0.0905687,0.00991994,510,0.0203034,3.47423
2,1,Potentiostatic EIS,6.09797,3.47441,8.74684e-05,19952.6,0.0897204,67.0389,0.0350005,-0.0826119,6.11315,0.109898,0.00986004,405,0.0202981,3.47441
2,1,Potentiostatic EIS,6.30346,3.47438,0.000332428,15848.9,0.0738163,62.937,0.0335842,-0.0657339,6.41433,0.13407,0.00989645,320,0.0201906,3.47438
2,1,Potentiostatic EIS,6.50731,3.47444,0.000988935,12589.2,0.062161,57.927,0.0330075,-0.0526735,6.68819,0.161594,0.0100449,255,0.0202554,3.47444
2,1,Potentiostatic EIS,6.81337,3.47463,0.000948912,9999.98,0.0532907,52.5117,0.0324326,-0.042285,3.29958,0.187679,0.0100015,307,0.0307001,3.47463
2,1,Potentiostatic EIS,7.02938,3.47464,0.00114718,7943.27,0.0465053,46.9196,0.0317643,-0.0339673,4.0246,0.225839,0.0105027,244,0.0307178,3.47464
2,1,Potentiostatic EIS,7.24142,3.47465,0.00146759,6309.57,0.0405579,40.9524,0.0306315,-0.0265829,4.56144,0.256086,0.0103863,193,0.0305885,3.47465
2,1,Potentiostatic EIS,7.45416,3.47468,0.00178635,5011.87,0.0370698,33.2688,0.0309943,-0.0203353,4.62247,0.275438,0.0102104,153,0.0305276,3.47468
2,1,Potentiostatic EIS,7.62274,3.4747,0.00225029,3981.07,0.0349886,26.8739,0.0312099,-0.0158158,4.42846,0.270094,0.00945019,122,0.0306451,3.4747
2,1,Potentiostatic EIS,7.79101,3.47471,0.00224365,3162.27,0.0336151,21.3384,0.0313107,-0.0122317,4.04634,0.312534,0.0105059,97,0.0306742,3.47471
2,1,Potentiostatic EIS,7.96046,3.47471,0.00222445,2511.88,0.0327945,16.5173,0.0314412,-0.0093236,3.67007,0.314261,0.010306,77,0.0306543,3.47471
2,1,Potentiostatic EIS,8.12731,3.47471,0.00231304,1995.26,0.0323463,12.3929,0.0315926,-0.006942,3.1653,0.312935,0.0101223,61,0.0305725,3.47471
2,1,Potentiostatic EIS,8.25112,3.47473,0.0023402,1584.89,0.0321809,8.9423,0.0317897,-0.00500219,2.98646,0.308946,0.00994214,48,0.030286,3.47473
2,1,Potentiostatic EIS,8.37441,3.47475,0.00281878,1258.92,0.0322019,6.14085,0.0320171,-0.00344473,2.61395,0.320974,0.010336,38,0.0301845,3.47475
2,1,Potentiostatic EIS,8.49799,3.47475,0.00289798,999.999,0.0323298,3.79319,0.032259,-0.00213879,2.42776,0.315045,0.0101854,30,0.03,3.47475
2,1,Potentiostatic EIS,8.62156,3.47476,0.00294586,794.328,0.0325593,1.85729,0.0325422,-0.00105525,2.25607,0.310109,0.0100969,24,0.0302142,3.47476
2,1,Potentiostatic EIS,8.74517,3.47476,0.00306512,630.956,0.0328577,0.250366,0.0328574,-0.000143578,2.15478,0.305726,0.0100455,19,0.030113,3.47476
2,1,Potentiostatic EIS,8.86996,3.47474,0.00303064,501.187,0.0332073,-1.15722,0.0332005,0.000670651,2.023,0.302135,0.0100331,15,0.029929,3.47474
2,1,Potentiostatic EIS,8.94922,3.47474,0.00299243,398.107,0.0336271,-2.3894,0.0335979,0.00140194,1.92244,0.267703,0.0090021,12,0.0301427,3.47474
2,1,Potentiostatic EIS,9.02904,3.47475,0.0031487,316.228,0.0340695,-3.47205,0.034007,0.00206331,1.71485,0.275662,0.00939168,9,0.0284605,3.47475
2,1,Potentiostatic EIS,9.10909,3.47475,0.00309461,251.189,0.0346107,-4.42724,0.0345074,0.0026717,1.52177,0.278499,0.00963904,8,0.0318486,3.47475
2,1,Potentiostatic EIS,9.19777,3.47474,0.00307035,199.526,0.0352449,-5.24318,0.0350974,0.00322079,1.34484,0.277795,0.00979086,8,0.0400951,3.47474
2,1,Potentiostatic EIS,9.29788,3.47476,0.00328392,158.489,0.0359209,-5.98619,0.035725,0.00374614,1.11597,0.274953,0.00987656,8,0.0504766,3.47476
2,1,Potentiostatic EIS,9.41133,3.47476,0.00334113,125.892,0.0366882,-6.64377,0.0364418,0.00424468,0.958455,0.270508,0.00992446,8,0.0635464,3.47476
2,1,Potentiostatic EIS,9.54103,3.47476,0.00326977,100,0.0375504,-7.13563,0.0372596,0.00466445,0.752166,0.264948,0.00994888,8,0.08,3.47476
2,1,Potentiostatic EIS,9.69349,3.47476,0.00333595,79.4327,0.0384501,-7.45067,0.0381254,0.00498592,0.621143,0.258939,0.00995622,8,0.100714,3.47476
2,1,Potentiostatic EIS,9.87329,3.47476,0.00300326,63.0956,0.0394219,-7.61922,0.0390738,0.0052269,0.524849,0.252678,0.00996104,8,0.126792,3.47476
2,1,Potentiostatic EIS,10.0871,3.47475,0.00332544,50.1186,0.0403837,-7.70371,0.0400192,0.00541344,0.414838,0.242135,0.00977831,8,0.159621,3.47475
2,1,Potentiostatic EIS,10.3457,3.47473,0.00254954,39.8107,0.0413411,-7.61194,0.0409768,0.00547617,0.331853,0.237259,0.00980854,8,0.200951,3.47473
2,1,Potentiostatic EIS,10.4885,3.47474,0.0016861,31.6228,0.0422458,-7.50082,0.0418843,0.00551478,0.265831,0.234795,0.00991918,2,0.0632456,3.47474
2,1,Potentiostatic EIS,10.6501,3.47474,0.00253004,25.1188,0.0431958,-7.17576,0.0428574,0.00539573,0.235874,0.223861,0.0096699,2,0.0796217,3.47474
2,1,Potentiostatic EIS,10.8495,3.47474,0.00231946,19.9526,0.0441087,-6.8576,0.0437931,0.00526667,0.225587,0.221668,0.00977745,2,0.100238,3.47474
2,1,Potentiostatic EIS,11.0965,3.47474,0.00225508,15.8489,0.0449313,-6.49295,0.0446431,0.00508087,0.223049,0.219026,0.00984113,2,0.126192,3.47474
2,1,Potentiostatic EIS,11.403,3.47475,0.0023878,12.5892,0.0457236,-6.10948,0.0454639,0.00486629,0.186994,0.216129,0.00988219,2,0.158866,3.47475
2,1,Potentiostatic EIS,11.7841,3.47475,0.00223036,9.99998,0.0464673,-5.69715,0.0462377,0.00461281,0.203635,0.213302,0.00991156,2,0.2,3.47475
2,1,Potentiostatic EIS,12.2592,3.47475,0.00202,7.94328,0.0471394,-5.24242,0.0469423,0.00430713,0.184931,0.210657,0.00993025,2,0.251785,3.47475
2,1,Potentiostatic EIS,12.8528,3.47475,0.00193683,6.30957,0.0477431,-4.8097,0.047575,0.0040031,0.178677,0.208062,0.00993351,2,0.316979,3.47475
2,1,Potentiostatic EIS,13.5928,3.47475,0.00191083,5.01186,0.048262,-4.3888,0.0481204,0.0036932,0.177953,0.206198,0.00995152,2,0.399053,3.47475
2,1,Potentiostatic EIS,14.5205,3.47476,0.0018802,3.98106,0.0486937,-3.97341,0.0485766,0.00337416,0.161075,0.204556,0.00996056,2,0.502378,3.47476
2,1,Potentiostatic EIS,15.6854,3.47475,0.00137935,3.16227,0.0490939,-3.59386,0.0489974,0.00307738,0.179084,0.202973,0.00996473,2,0.632458,3.47475
2,1,Potentiostatic EIS,17.1484,3.47475,0.00136027,2.51188,0.0494209,-3.27449,0.0493402,0.0028229,0.16399,0.201695,0.00996798,2,0.796216,3.47475
2,1,Potentiostatic EIS,18.9865,3.47476,0.00143552,1.99526,0.0496954,-2.98894,0.0496278,0.00259127,0.1731,0.200509,0.00996436,2,1.00238,3.47476
2,1,Potentiostatic EIS,21.296,3.47475,0.000675468,1.58489,0.0498991,-2.838,0.0498379,0.00247061,0.179835,0.199792,0.00996947,2,1.26192,3.47475
2,1,Potentiostatic EIS,24.2005,3.47475,0.000785686,1.25892,0.0501051,-2.73708,0.050048,0.00239266,0.181529,0.19911,0.00997646,2,1.58866,3.47475
2,1,Potentiostatic EIS,27.8524,3.47475,0.000853883,0.999998,0.0502507,-2.69738,0.050195,0.00236484,0.177578,0.198403,0.00996989,2,2,3.47475
2,1,Potentiostatic EIS,32.4476,3.47476,0.000107777,0.794327,0.050423,-2.76291,0.0503644,0.00243055,0.157956,0.197627,0.00996492,2,2.51785,3.47476
2,1,Potentiostatic EIS,38.2265,3.47476,0.000515059,0.630956,0.0505625,-2.90063,0.0504978,0.00255866,0.164844,0.197109,0.00996629,2,3.16979,3.47476
2,1,Potentiostatic EIS,45.5012,3.47477,0.000407943,0.501186,0.050698,-3.11887,0.0506229,0.00275836,0.215109,0.19659,0.0099667,2,3.99054,3.47477
2,1,Potentiostatic EIS,52.7914,3.47477,-3.42794e-05,0.5,0.0506262,-3.1353,0.0505505,0.00276895,0.213358,0.196803,0.00996336,2,4,3.47477