Folder: feature-extraction-paper-2024/Data/P180/P180_04/EIS_08_P180_04_3

Note: README.md
# feature-extraction-paper-2024
Repository for code used and referenced in 2024 feature extraction paper

File: 2_EIS_08_P180_04_3 20230828 114629.csv
Step number,Repeats,Step name,Elapsed Time  (s),DC Working Electrode (V),DC Current (A),Frequency (Hz),|Z| (Ohms),Phase (deg),Z' (Ohms),-Z" (Ohms),THD (%),Amplitude (A),Amplitude (V),No of Cycles,Duration of Each Frequency (s),IR Compensated DC Working Electrode (V)
2,1,Potentiostatic EIS,0,3.48893,-0.0106347,1000000,2.37187,87.672,0.0963461,-2.36991,1.0236,0.00418105,0.00991699,1430,0.00143,3.48893
2,1,Potentiostatic EIS,0.246031,3.48887,-0.0119977,794328,1.90079,87.394,0.0864241,-1.89883,1.18944,0.00522837,0.00993819,1445,0.00181915,3.48887
2,1,Potentiostatic EIS,0.504591,3.48883,-0.012356,630957.375,1.51781,86.9954,0.0795586,-1.51572,1.08885,0.00655316,0.00994652,1355,0.00214753,3.48883
2,1,Potentiostatic EIS,0.771043,3.48878,-0.0134725,501187.25,1.21294,86.9764,0.0639788,-1.21125,1.27502,0.00819363,0.00993842,1385,0.00276344,3.48878
2,1,Potentiostatic EIS,1.05453,3.48871,-0.0149301,398107,0.971244,86.2005,0.0643597,-0.969109,1.28752,0.0102746,0.0099792,1400,0.00351664,3.48871
2,1,Potentiostatic EIS,1.36517,3.48865,-0.0154192,316228,0.773843,85.8339,0.0562185,-0.771798,1.27475,0.0125482,0.00971053,1370,0.00433232,3.48865
2,1,Potentiostatic EIS,1.73086,3.48858,-0.0167016,251189,0.622188,85.0077,0.0541443,-0.619828,1.35758,0.0160419,0.00998108,1340,0.00533464,3.48858
2,1,Potentiostatic EIS,2.1346,3.48852,-0.0181064,199526,0.496237,84.7876,0.0450817,-0.494185,1.48924,0.0200236,0.00993647,1355,0.00679109,3.48852
2,1,Potentiostatic EIS,2.64485,3.48844,-0.0190356,158489,0.398716,83.7908,0.0431247,-0.396377,1.46365,0.0248682,0.00991537,1360,0.00858102,3.48844
2,1,Potentiostatic EIS,3.17411,3.48835,-0.02064,125893,0.320446,82.995,0.0390801,-0.318054,1.64156,0.0305913,0.00980212,1370,0.0108823,3.48835
2,1,Potentiostatic EIS,3.84959,3.48825,-0.0221726,100000,0.256484,82.0101,0.0356507,-0.253994,1.69152,0.0388867,0.00997387,1370,0.0137,3.48825
2,1,Potentiostatic EIS,4.5278,3.48818,-0.0228317,79432.8,0.207207,80.5891,0.033881,-0.204418,2.39837,0.0468435,0.00970605,1365,0.0171843,3.48818
2,1,Potentiostatic EIS,4.88617,3.48804,-0.0246086,63095.7,0.166808,79.312,0.0309364,-0.163914,1.95723,0.0599098,0.00999344,1290,0.0204451,3.48804
2,1,Potentiostatic EIS,5.27312,3.48863,-0.0108603,50118.75,0.134849,77.4724,0.0292501,-0.131639,4.25344,0.0739713,0.00997504,1025,0.0204514,3.48863
2,1,Potentiostatic EIS,5.5002,3.48863,-0.0104912,39810.7,0.109265,75.3594,0.0276173,-0.105717,4.86591,0.091728,0.0100227,815,0.0204719,3.48863
2,1,Potentiostatic EIS,5.7327,3.48864,-0.0104039,31622.8,0.0894,72.7951,0.0264437,-0.0853996,5.74455,0.112764,0.0100812,645,0.0203967,3.48864
2,1,Potentiostatic EIS,5.95976,3.48898,-0.00256868,25118.9,0.0730989,69.7086,0.0253503,-0.0685624,6.28343,0.138261,0.0101069,510,0.0203034,3.48898
2,1,Potentiostatic EIS,6.19388,3.489,-0.00210739,19952.6,0.0600849,66.2506,0.0241984,-0.0549967,6.9684,0.168198,0.0101062,405,0.0202981,3.489
2,1,Potentiostatic EIS,6.41804,3.48906,-0.00082331,15848.9,0.0495934,62.2361,0.023102,-0.0438839,7.2485,0.201956,0.0100159,320,0.0201906,3.48906
2,1,Potentiostatic EIS,6.65127,3.48909,-0.000156119,12589.2,0.041859,57.2973,0.0226156,-0.0352237,7.2431,0.239285,0.0100161,255,0.0202554,3.48909
2,1,Potentiostatic EIS,6.96045,3.48928,-0.00015567,9999.98,0.0358826,51.9945,0.0220943,-0.0282737,3.24769,0.277998,0.00997527,307,0.0307001,3.48928
2,1,Potentiostatic EIS,7.1727,3.4893,0.000196839,7943.27,0.0313335,46.7563,0.0214666,-0.0228248,3.98872,0.280505,0.00878921,244,0.0307178,3.4893
2,1,Potentiostatic EIS,7.386,3.48931,5.11109e-05,6309.57,0.0270242,40.9128,0.0204224,-0.0176984,4.41222,0.363037,0.00981078,193,0.0305885,3.48931
2,1,Potentiostatic EIS,7.59798,3.48933,0.000418201,5011.87,0.0247268,32.7708,0.0207914,-0.0133841,4.38058,0.423416,0.0104697,153,0.0305276,3.48933
2,1,Potentiostatic EIS,7.80901,3.48936,0.00101136,3981.07,0.0234193,26.3032,0.0209945,-0.0103776,4.17246,0.438828,0.0102771,122,0.0306451,3.48936
2,1,Potentiostatic EIS,8.02104,3.48937,0.00163388,3162.27,0.0225592,20.6626,0.0211081,-0.00796031,3.84858,0.449326,0.0101364,97,0.0306742,3.48937
2,1,Potentiostatic EIS,8.18827,3.48939,0.00166042,2511.88,0.0220247,15.7951,0.0211931,-0.00599508,3.56868,0.458959,0.0101084,77,0.0306543,3.48939
2,1,Potentiostatic EIS,8.35598,3.4894,0.0015082,1995.26,0.0217397,11.6045,0.0212953,-0.00437303,3.02801,0.475387,0.0103348,61,0.0305725,3.4894
2,1,Potentiostatic EIS,8.52478,3.48941,0.00208207,1584.89,0.0216307,8.01237,0.0214195,-0.00301504,2.78579,0.469854,0.0101633,48,0.030286,3.48941
2,1,Potentiostatic EIS,8.64882,3.48942,0.00231879,1258.92,0.0216481,4.94896,0.0215674,-0.00186755,2.62386,0.405315,0.0087743,38,0.0301845,3.48942
2,1,Potentiostatic EIS,8.77206,3.48941,0.00211963,999.999,0.0217838,2.34847,0.0217655,-0.000892636,2.36034,0.474393,0.0103341,30,0.03,3.48941
2,1,Potentiostatic EIS,8.89544,3.48941,0.00223295,794.328,0.021995,0.0851748,0.021995,-3.26974e-05,2.1686,0.463318,0.0101907,24,0.0302142,3.48941
2,1,Potentiostatic EIS,9.01968,3.48941,0.00205511,630.956,0.0222613,-1.89126,0.0222492,0.000734682,2.0931,0.453091,0.0100864,19,0.030113,3.48941
2,1,Potentiostatic EIS,9.14251,3.48943,0.00300841,501.187,0.0225914,-3.67561,0.0225449,0.00144828,2.02814,0.444609,0.0100444,15,0.029929,3.48943
2,1,Potentiostatic EIS,9.2228,3.48944,0.00270353,398.107,0.0230506,-5.38625,0.0229489,0.00216375,2.00125,0.37445,0.00863131,12,0.0301427,3.48944
2,1,Potentiostatic EIS,9.30279,3.48945,0.00308045,316.228,0.0235516,-6.86604,0.0233827,0.00281555,1.84884,0.391144,0.00921206,9,0.0284605,3.48945
2,1,Potentiostatic EIS,9.3859,3.48944,0.00288444,251.189,0.0241603,-8.26697,0.0239093,0.00347391,1.68617,0.396764,0.00958595,8,0.0318486,3.48944
2,1,Potentiostatic EIS,9.47517,3.48945,0.00302358,199.526,0.0249023,-9.47827,0.0245623,0.00410075,1.55187,0.393965,0.00981063,8,0.0400951,3.48945
2,1,Potentiostatic EIS,9.57427,3.48946,0.00332599,158.489,0.0257482,-10.4734,0.0253192,0.00468048,1.33943,0.385568,0.00992767,8,0.0504766,3.48946
2,1,Potentiostatic EIS,9.68775,3.48945,0.00333487,125.892,0.0266967,-11.3324,0.0261762,0.00524592,1.15879,0.373833,0.0099801,8,0.0635464,3.48945
2,1,Potentiostatic EIS,9.81664,3.48944,0.00295397,100,0.0277662,-11.9585,0.0271636,0.00575323,0.970805,0.359914,0.00999347,8,0.08,3.48944
2,1,Potentiostatic EIS,9.96811,3.48945,0.00292701,79.4327,0.0289229,-12.2838,0.0282607,0.00615346,0.822489,0.345479,0.00999225,8,0.100714,3.48945
2,1,Potentiostatic EIS,10.1481,3.48945,0.00271267,63.0956,0.0301069,-12.3396,0.0294113,0.00643399,0.678394,0.331539,0.00998159,8,0.126792,3.48945
2,1,Potentiostatic EIS,10.3628,3.48945,0.0035152,50.1186,0.0312962,-12.2353,0.0305854,0.00663251,0.551526,0.313776,0.00982,8,0.159621,3.48945
2,1,Potentiostatic EIS,10.6242,3.48944,0.00254831,39.8107,0.0324952,-11.8309,0.0318049,0.00666229,0.428403,0.302678,0.00983561,8,0.200951,3.48944
2,1,Potentiostatic EIS,10.7686,3.48945,0.000711988,31.6228,0.0336007,-11.4224,0.0329351,0.00665432,0.368873,0.295092,0.00991538,2,0.0632456,3.48945
2,1,Potentiostatic EIS,10.931,3.48945,0.0019746,25.1188,0.0347606,-10.7194,0.0341541,0.00646548,0.306868,0.27813,0.00966788,2,0.0796217,3.48945
2,1,Potentiostatic EIS,11.1308,3.48946,0.00203383,19.9526,0.0358022,-10.0111,0.0352571,0.00622382,0.268482,0.272912,0.00977086,2,0.100238,3.48946
2,1,Potentiostatic EIS,11.3779,3.48946,0.00208898,15.8489,0.0367795,-9.28323,0.0362978,0.00593308,0.238899,0.267476,0.00983755,2,0.126192,3.48946
2,1,Potentiostatic EIS,11.6844,3.48946,0.00221184,12.5892,0.0376485,-8.49711,0.0372352,0.00556292,0.223686,0.262377,0.00987811,2,0.158866,3.48946
2,1,Potentiostatic EIS,12.0657,3.48944,0.00191211,9.99998,0.0384472,-7.6987,0.0381006,0.00515052,0.224388,0.257595,0.00990377,2,0.2,3.48944
2,1,Potentiostatic EIS,12.5406,3.48945,0.00178841,7.94328,0.0391298,-6.92857,0.0388441,0.0047203,0.200958,0.253719,0.00992799,2,0.251785,3.48945
2,1,Potentiostatic EIS,13.1341,3.48944,0.00137338,6.30957,0.0397184,-6.22008,0.0394846,0.0043034,0.206387,0.250102,0.00993365,2,0.316979,3.48944
2,1,Potentiostatic EIS,13.874,3.48945,0.0017006,5.01186,0.040237,-5.53259,0.0400496,0.00387933,0.185801,0.247187,0.00994605,2,0.399053,3.48945
2,1,Potentiostatic EIS,14.8017,3.48945,0.00149761,3.98106,0.0406479,-4.95496,0.040496,0.00351087,0.188164,0.244719,0.00994732,2,0.502378,3.48945
2,1,Potentiostatic EIS,15.9667,3.48945,0.000944534,3.16227,0.0410077,-4.47536,0.0408827,0.00319985,0.177292,0.242595,0.00994823,2,0.632458,3.48945
2,1,Potentiostatic EIS,17.4296,3.48945,0.00103473,2.51188,0.0413135,-4.0617,0.0412097,0.00292626,0.184656,0.241096,0.00996052,2,0.796216,3.48945
2,1,Potentiostatic EIS,19.268,3.48945,0.000939028,1.99526,0.0415858,-3.74881,0.0414968,0.00271898,0.182646,0.239417,0.00995634,2,1.00238,3.48945
2,1,Potentiostatic EIS,21.5778,3.48946,0.000527733,1.58489,0.0418105,-3.52363,0.0417314,0.00256968,0.14571,0.238291,0.00996304,2,1.26192,3.48946
2,1,Potentiostatic EIS,24.4823,3.48946,0.000607259,1.25892,0.0420134,-3.39675,0.0419396,0.00248928,0.154349,0.237173,0.00996445,2,1.58866,3.48946
2,1,Potentiostatic EIS,28.1344,3.48946,0.000711272,0.999998,0.0422042,-3.34114,0.0421325,0.0024597,0.170496,0.235977,0.00995923,2,2,3.48946
2,1,Potentiostatic EIS,32.7288,3.48946,-0.000198086,0.794327,0.0424011,-3.39994,0.0423265,0.00251461,0.161055,0.234843,0.00995761,2,2.51785,3.48946
2,1,Potentiostatic EIS,38.5082,3.48945,0.000266459,0.630956,0.0426057,-3.5345,0.0425246,0.00262662,0.158791,0.233762,0.00995959,2,3.16979,3.48945
2,1,Potentiostatic EIS,45.7818,3.48946,0.000585486,0.501186,0.0428174,-3.78701,0.0427239,0.00282799,0.151707,0.232715,0.00996424,2,3.99054,3.48946
2,1,Potentiostatic EIS,53.0719,3.48945,0.000134292,0.5,0.0427911,-3.80343,0.0426969,0.00283849,0.150445,0.232801,0.0099618,2,4,3.48945