Folder: feature-extraction-paper-2024/Data/P180/P180_04/EIS_04_P180_04_2

Note: README.md
# feature-extraction-paper-2024
Repository for code used and referenced in 2024 feature extraction paper

File: 2_EIS_04_P180_04_2 20230822 152102.csv
Step number,Repeats,Step name,Elapsed Time  (s),DC Working Electrode (V),DC Current (A),Frequency (Hz),|Z| (Ohms),Phase (deg),Z' (Ohms),-Z" (Ohms),THD (%),Amplitude (A),Amplitude (V),No of Cycles,Duration of Each Frequency (s),IR Compensated DC Working Electrode (V)
2,1,Potentiostatic EIS,0,3.59844,-0.0123413,1000000,2.24995,87.1913,0.110252,-2.24725,0.883374,0.00448003,0.01008,1430,0.00143,3.59844
2,1,Potentiostatic EIS,0.238163,3.59838,-0.0132611,794328,1.80222,86.6652,0.104835,-1.79917,1.16333,0.00551557,0.00994026,1445,0.00181915,3.59838
2,1,Potentiostatic EIS,0.492313,3.59832,-0.0141838,630957.375,1.44182,86.2903,0.0932889,-1.4388,1.13516,0.00691308,0.00996743,1355,0.00214753,3.59832
2,1,Potentiostatic EIS,0.765218,3.59827,-0.0153598,501187.25,1.15431,86.239,0.0757176,-1.15183,1.08328,0.00863818,0.00997114,1385,0.00276344,3.59827
2,1,Potentiostatic EIS,1.04322,3.59819,-0.0167498,398107,0.925349,85.4502,0.0734044,-0.922433,1.19531,0.0107383,0.00993671,1400,0.00351664,3.59819
2,1,Potentiostatic EIS,1.38058,3.59813,-0.0175031,316228,0.737847,85.0381,0.0638192,-0.735081,1.04768,0.0134713,0.00993979,1370,0.00433232,3.59813
2,1,Potentiostatic EIS,1.7463,3.59806,-0.0188526,251189,0.5941,84.1086,0.0609802,-0.590962,1.23049,0.0167788,0.00996831,1340,0.00533464,3.59806
2,1,Potentiostatic EIS,2.15469,3.59796,-0.0205958,199526,0.474125,83.7598,0.051536,-0.471315,1.58675,0.0209593,0.00993738,1355,0.00679109,3.59796
2,1,Potentiostatic EIS,2.62402,3.5979,-0.0214591,158489,0.381333,82.6366,0.0488727,-0.378188,1.56049,0.0260859,0.00994742,1360,0.00858102,3.5979
2,1,Potentiostatic EIS,3.15782,3.59778,-0.0235164,125893,0.307597,81.6546,0.044645,-0.30434,1.74594,0.0316357,0.00973091,1370,0.0108823,3.59778
2,1,Potentiostatic EIS,3.83892,3.59769,-0.0251117,100000,0.246874,80.4048,0.0411505,-0.24342,1.98266,0.0403592,0.00996365,1370,0.0137,3.59769
2,1,Potentiostatic EIS,4.57494,3.59759,-0.0266522,79432.8,0.199469,78.7995,0.0387456,-0.19567,2.5795,0.0500094,0.00997538,1365,0.0171843,3.59759
2,1,Potentiostatic EIS,4.94295,3.59746,-0.0285285,63095.7,0.160865,77.1151,0.035872,-0.156815,2.06606,0.0619951,0.00997287,1290,0.0204451,3.59746
2,1,Potentiostatic EIS,5.32269,3.59815,-0.0131182,50118.75,0.130474,74.9462,0.0338874,-0.125996,4.40388,0.0763589,0.00996291,1025,0.0204514,3.59815
2,1,Potentiostatic EIS,5.54464,3.59814,-0.0135045,39810.7,0.106413,72.4325,0.0321187,-0.10145,5.21485,0.0943122,0.010036,815,0.0204719,3.59814
2,1,Potentiostatic EIS,5.76593,3.59815,-0.0132893,31622.8,0.0876743,69.1958,0.0311397,-0.0819579,5.80179,0.115123,0.0100936,645,0.0203967,3.59815
2,1,Potentiostatic EIS,5.98702,3.59849,-0.00565365,25118.9,0.0724362,65.631,0.0298881,-0.0659826,6.26153,0.139438,0.0101003,510,0.0203034,3.59849
2,1,Potentiostatic EIS,6.20658,3.59852,-0.0049502,19952.6,0.0600871,61.4419,0.0287247,-0.0527765,6.84464,0.168117,0.0101019,405,0.0202981,3.59852
2,1,Potentiostatic EIS,6.42802,3.59856,-0.00389326,15848.9,0.050457,56.5345,0.0278237,-0.0420922,6.8433,0.198876,0.0100348,320,0.0201906,3.59856
2,1,Potentiostatic EIS,6.65124,3.59859,-0.0032077,12589.2,0.043421,51.1922,0.0272124,-0.0338359,6.69474,0.230749,0.0100196,255,0.0202554,3.59859
2,1,Potentiostatic EIS,6.95714,3.59848,-0.0029016,9999.98,0.0381597,45.4273,0.026781,-0.0271835,3.07424,0.261683,0.00998575,307,0.0307001,3.59848
2,1,Potentiostatic EIS,7.1678,3.59858,-0.00269104,7943.27,0.0342026,39.9058,0.0262368,-0.0219419,3.66904,0.28237,0.00965779,244,0.0307178,3.59858
2,1,Potentiostatic EIS,7.37895,3.59859,-0.00283956,6309.57,0.0303868,34.0202,0.0251858,-0.017001,4.03449,0.347887,0.0105712,193,0.0305885,3.59859
2,1,Potentiostatic EIS,7.59016,3.59864,-0.00147503,5011.87,0.0285948,26.5998,0.0255682,-0.0128035,4.05098,0.363105,0.0103829,153,0.0305276,3.59864
2,1,Potentiostatic EIS,7.80153,3.59865,-0.00124747,3981.07,0.0276478,20.9425,0.0258214,-0.00988216,3.84843,0.368554,0.0101897,122,0.0306451,3.59865
2,1,Potentiostatic EIS,7.97216,3.59867,-0.000593455,3162.27,0.0270132,16.2606,0.0259326,-0.00756388,3.6176,0.361981,0.00977824,97,0.0306742,3.59867
2,1,Potentiostatic EIS,8.13964,3.59867,-0.00084156,2511.88,0.0266573,12.291,0.0260463,-0.00567474,3.25369,0.390865,0.0104194,77,0.0306543,3.59867
2,1,Potentiostatic EIS,8.30706,3.59869,-0.000315982,1995.26,0.0265007,8.95207,0.0261779,-0.00412372,2.89431,0.385566,0.0102178,61,0.0305725,3.59869
2,1,Potentiostatic EIS,8.43136,3.59871,-0.000107414,1584.89,0.0264823,6.12603,0.026331,-0.00282607,2.77799,0.334275,0.00885236,48,0.030286,3.59871
2,1,Potentiostatic EIS,8.55384,3.59871,-9.86668e-05,1258.92,0.0265504,3.82272,0.0264913,-0.0017701,2.58815,0.385868,0.0102449,38,0.0301845,3.59871
2,1,Potentiostatic EIS,8.67782,3.59872,-5.66173e-05,999.999,0.026707,1.86977,0.0266928,-0.000871392,2.4214,0.383356,0.0102383,30,0.03,3.59872
2,1,Potentiostatic EIS,8.80209,3.59871,-2.99679e-05,794.328,0.0269154,0.197925,0.0269152,-9.29776e-05,2.29666,0.37602,0.0101207,24,0.0302142,3.59871
2,1,Potentiostatic EIS,8.92501,3.59872,0.000163042,630.956,0.027186,-1.23141,0.0271797,0.00058424,2.18934,0.370432,0.0100706,19,0.030113,3.59872
2,1,Potentiostatic EIS,9.0489,3.59872,0.000619421,501.187,0.027493,-2.52625,0.0274662,0.00121181,2.10484,0.365038,0.010036,15,0.029929,3.59872
2,1,Potentiostatic EIS,9.13044,3.59873,0.00051093,398.107,0.0278582,-3.70678,0.0278,0.00180104,2.02762,0.317371,0.0088414,12,0.0301427,3.59873
2,1,Potentiostatic EIS,9.21005,3.59864,0.000689329,316.228,0.028259,-4.80003,0.0281599,0.00236467,1.82373,0.329096,0.00929992,9,0.0284605,3.59864
2,1,Potentiostatic EIS,9.29147,3.59874,0.000779148,251.189,0.02879,-5.89182,0.028638,0.00295531,1.63634,0.333371,0.00959775,8,0.0318486,3.59874
2,1,Potentiostatic EIS,9.38103,3.59874,0.000962222,199.526,0.0293931,-6.80891,0.0291858,0.0034848,1.48315,0.332658,0.00977785,8,0.0400951,3.59874
2,1,Potentiostatic EIS,9.48095,3.59874,0.00104563,158.489,0.0300806,-7.62389,0.0298147,0.00399079,1.22771,0.328521,0.00988212,8,0.0504766,3.59874
2,1,Potentiostatic EIS,9.5941,3.59874,0.000998578,125.892,0.030871,-8.3609,0.0305429,0.00448889,1.08405,0.321884,0.00993689,8,0.0635464,3.59874
2,1,Potentiostatic EIS,9.72474,3.59875,0.00104515,100,0.0317611,-8.92352,0.0313767,0.00492665,0.859864,0.313533,0.00995815,8,0.08,3.59875
2,1,Potentiostatic EIS,9.87697,3.59873,0.000785853,79.4327,0.0327196,-9.26785,0.0322924,0.00526949,0.72162,0.304489,0.00996273,8,0.100714,3.59873
2,1,Potentiostatic EIS,10.0574,3.59873,0.000452844,63.0956,0.0337199,-9.43968,0.0332633,0.00553038,0.59006,0.295296,0.00995735,8,0.126792,3.59873
2,1,Potentiostatic EIS,10.2718,3.59874,0.00114264,50.1186,0.0347426,-9.49182,0.0342669,0.00572928,0.477707,0.281665,0.00978578,8,0.159621,3.59874
2,1,Potentiostatic EIS,10.5314,3.59872,0.000359291,39.8107,0.0357505,-9.32948,0.0352777,0.00579557,0.388331,0.27447,0.00981246,8,0.200951,3.59872
2,1,Potentiostatic EIS,10.6745,3.59873,0.000533603,31.6228,0.0367827,-9.08355,0.0363214,0.00580705,0.308275,0.269583,0.00991587,2,0.0632456,3.59873
2,1,Potentiostatic EIS,10.8368,3.59873,0.000181392,25.1188,0.0377162,-8.77852,0.0372744,0.00575607,0.258558,0.256224,0.0096636,2,0.0796217,3.59873
2,1,Potentiostatic EIS,11.0363,3.59873,-6.89293e-05,19.9526,0.0386695,-8.42581,0.0382521,0.00566618,0.253803,0.252766,0.00977423,2,0.100238,3.59873
2,1,Potentiostatic EIS,11.2832,3.59873,0.000158527,15.8489,0.039573,-7.98981,0.0391888,0.00550052,0.236867,0.24859,0.00983743,2,0.126192,3.59873
2,1,Potentiostatic EIS,11.5896,3.59874,0.000146401,12.5892,0.040453,-7.5168,0.0401053,0.00529193,0.239063,0.244123,0.00987548,2,0.158866,3.59874
2,1,Potentiostatic EIS,11.971,3.59873,-0.000666964,9.99998,0.0412811,-6.97071,0.0409759,0.00500995,0.226267,0.240239,0.00991735,2,0.2,3.59873
2,1,Potentiostatic EIS,12.446,3.59874,-0.000424787,7.94328,0.0420556,-6.35801,0.041797,0.00465726,0.235762,0.236035,0.00992662,2,0.251785,3.59874
2,1,Potentiostatic EIS,13.0398,3.59874,-0.000398903,6.30957,0.0427563,-5.7352,0.0425422,0.00427268,0.183931,0.232372,0.00993535,2,0.316979,3.59874
2,1,Potentiostatic EIS,13.7796,3.59874,-0.000234014,5.01186,0.0433065,-5.09838,0.0431351,0.00384848,0.182336,0.229763,0.00995023,2,0.399053,3.59874
2,1,Potentiostatic EIS,14.707,3.59874,-0.000453242,3.98106,0.0437428,-4.53047,0.0436061,0.00345521,0.191572,0.227556,0.00995391,2,0.502378,3.59874
2,1,Potentiostatic EIS,15.8721,3.59873,-0.000721743,3.16227,0.0441224,-4.00033,0.0440149,0.00307808,0.170223,0.225715,0.00995908,2,0.632458,3.59873
2,1,Potentiostatic EIS,17.335,3.59872,-0.000617324,2.51188,0.0444443,-3.57191,0.044358,0.00276894,0.175286,0.224063,0.00995832,2,0.796216,3.59872
2,1,Potentiostatic EIS,19.1741,3.59872,-0.000800611,1.99526,0.0446277,-3.24006,0.0445563,0.00252234,0.183242,0.223147,0.00995854,2,1.00238,3.59872
2,1,Potentiostatic EIS,21.4844,3.59872,-0.00102791,1.58489,0.0448135,-2.98299,0.0447528,0.00233207,0.162983,0.222245,0.00995958,2,1.26192,3.59872
2,1,Potentiostatic EIS,24.3891,3.59873,-0.000556462,1.25892,0.0449711,-2.80699,0.0449172,0.00220231,0.154998,0.221767,0.00997313,2,1.58866,3.59873
2,1,Potentiostatic EIS,28.0412,3.59872,-0.000640467,0.999998,0.0451042,-2.71499,0.0450535,0.00213649,0.167324,0.221044,0.00996997,2,2,3.59872
2,1,Potentiostatic EIS,32.6368,3.59873,-0.00108629,0.794327,0.045225,-2.70871,0.0451745,0.00213726,0.16315,0.220271,0.00996177,2,2.51785,3.59873
2,1,Potentiostatic EIS,38.4159,3.59873,-0.000506305,0.630956,0.0453868,-2.78564,0.0453332,0.00220577,0.142561,0.219565,0.00996532,2,3.16979,3.59873
2,1,Potentiostatic EIS,45.6895,3.59873,-0.000575978,0.501186,0.0455264,-2.94246,0.0454664,0.00233701,0.101303,0.218946,0.00996783,2,3.99054,3.59873
2,1,Potentiostatic EIS,52.98,3.59874,-0.000467449,0.5,0.0457135,-2.9261,0.0456539,0.00233358,0.121701,0.218055,0.00996797,2,4,3.59874