Folder: feature-extraction-paper-2024/Data/P180/P180_04/EIS_02_P180_04_2

Note: README.md
# feature-extraction-paper-2024
Repository for code used and referenced in 2024 feature extraction paper

File: 2_EIS_02_P180_04_2 20230821 145052.csv
Step number,Repeats,Step name,Elapsed Time  (s),DC Working Electrode (V),DC Current (A),Frequency (Hz),|Z| (Ohms),Phase (deg),Z' (Ohms),-Z" (Ohms),THD (%),Amplitude (A),Amplitude (V),No of Cycles,Duration of Each Frequency (s),IR Compensated DC Working Electrode (V)
2,1,Potentiostatic EIS,0,3.68915,-0.0120934,1000000,2.07155,87.0965,0.104933,-2.06889,0.892807,0.00482799,0.0100015,1430,0.00143,3.68915
2,1,Potentiostatic EIS,0.25244,3.68907,-0.0138622,794328,1.66976,86.6462,0.0976833,-1.6669,1.16534,0.00598751,0.00999773,1445,0.00181915,3.68907
2,1,Potentiostatic EIS,0.510913,3.68903,-0.0146241,630957.375,1.32999,86.1626,0.0890095,-1.32701,1.03851,0.00750456,0.00998121,1355,0.00214753,3.68903
2,1,Potentiostatic EIS,0.787538,3.68895,-0.015829,501187.25,1.06672,86.2566,0.0696444,-1.06444,1.08308,0.00935973,0.00998421,1385,0.00276344,3.68895
2,1,Potentiostatic EIS,1.07851,3.68889,-0.0169575,398107,0.854789,85.3133,0.0698426,-0.851931,1.15387,0.0114789,0.00981207,1400,0.00351664,3.68889
2,1,Potentiostatic EIS,1.41245,3.68883,-0.0176432,316228,0.681808,84.9604,0.0598932,-0.679173,1.25492,0.0145716,0.00993517,1370,0.00433232,3.68883
2,1,Potentiostatic EIS,1.7813,3.68875,-0.0191582,251189,0.550201,83.9203,0.0582724,-0.547106,1.29898,0.0181204,0.00996985,1340,0.00533464,3.68875
2,1,Potentiostatic EIS,2.36183,3.68869,-0.0200048,199526,0.438628,83.6778,0.0483015,-0.43596,1.53204,0.0226279,0.0099252,1355,0.00679109,3.68869
2,1,Potentiostatic EIS,2.82298,3.6886,-0.0217959,158489,0.353375,82.4783,0.0462575,-0.350334,1.67723,0.0278889,0.00985528,1360,0.00858102,3.6886
2,1,Potentiostatic EIS,3.40011,3.68848,-0.023631,125893,0.2856,81.6687,0.0413825,-0.282586,1.79409,0.0348871,0.00996379,1370,0.0108823,3.68848
2,1,Potentiostatic EIS,4.07958,3.68836,-0.0256739,100000,0.229156,80.6191,0.0373518,-0.226091,1.89752,0.0434591,0.00995892,1370,0.0137,3.68836
2,1,Potentiostatic EIS,4.81937,3.68826,-0.0272217,79432.8,0.185251,78.917,0.0356111,-0.181796,2.75542,0.0539773,0.00999937,1365,0.0171843,3.68826
2,1,Potentiostatic EIS,5.21437,3.68882,-0.0145515,63095.7,0.149565,77.4766,0.0324313,-0.146006,4.02264,0.0666881,0.00997417,1290,0.0204451,3.68882
2,1,Potentiostatic EIS,5.43511,3.68882,-0.0147166,50118.75,0.121614,75.4568,0.0305385,-0.117717,4.53312,0.0825409,0.0100383,1025,0.0204514,3.68882
2,1,Potentiostatic EIS,5.65599,3.68883,-0.0143866,39810.7,0.099048,72.9736,0.0290025,-0.0947067,5.30088,0.101241,0.0100278,815,0.0204719,3.68883
2,1,Potentiostatic EIS,5.87839,3.68883,-0.0145451,31622.8,0.081396,69.9907,0.0278515,-0.0764828,5.74233,0.124019,0.0100945,645,0.0203967,3.68883
2,1,Potentiostatic EIS,6.10042,3.68913,-0.0072538,25118.9,0.0671447,66.8605,0.0263859,-0.061743,6.59551,0.151027,0.0101405,510,0.0203034,3.68913
2,1,Potentiostatic EIS,6.32415,3.68919,-0.00630103,19952.6,0.0556974,62.8334,0.0254302,-0.049553,6.81249,0.181868,0.0101298,405,0.0202981,3.68919
2,1,Potentiostatic EIS,6.5462,3.68924,-0.00555311,15848.9,0.0464612,58.5081,0.0242703,-0.0396181,7.02135,0.216034,0.010037,320,0.0201906,3.68924
2,1,Potentiostatic EIS,6.77085,3.68929,-0.0042669,12589.2,0.0396873,53.3697,0.0236794,-0.0318491,6.89788,0.25234,0.0100147,255,0.0202554,3.68929
2,1,Potentiostatic EIS,7.07696,3.68919,-0.0041818,9999.98,0.034531,47.8335,0.0231802,-0.0255943,3.13258,0.289074,0.00998202,307,0.0307001,3.68919
2,1,Potentiostatic EIS,7.29224,3.68924,-0.00354568,7943.27,0.0306415,42.4422,0.0226122,-0.0206783,3.82895,0.286198,0.00876955,244,0.0307178,3.68924
2,1,Potentiostatic EIS,7.50359,3.68924,-0.00359454,6309.57,0.0268152,36.6093,0.0215251,-0.0159914,4.21047,0.370414,0.00993272,193,0.0305885,3.68924
2,1,Potentiostatic EIS,7.71521,3.68926,-0.0033708,5011.87,0.0249949,28.6916,0.0219259,-0.0119999,4.1752,0.419156,0.0104768,153,0.0305276,3.68926
2,1,Potentiostatic EIS,7.92889,3.68928,-0.00255368,3981.07,0.0240173,22.6127,0.022171,-0.00923466,3.97313,0.427706,0.0102723,122,0.0306451,3.68928
2,1,Potentiostatic EIS,8.09743,3.68931,-0.00187151,3162.27,0.0233276,17.4667,0.022252,-0.0070018,3.78868,0.369507,0.00861972,97,0.0306742,3.68931
2,1,Potentiostatic EIS,8.26649,3.68931,-0.00164767,2511.88,0.0230025,13.1347,0.0224007,-0.0052271,3.32935,0.457046,0.0105132,77,0.0306543,3.68931
2,1,Potentiostatic EIS,8.43784,3.68933,-0.00161832,1995.26,0.0228424,9.40016,0.0225357,-0.00373082,3.08806,0.451173,0.0103059,61,0.0305725,3.68933
2,1,Potentiostatic EIS,8.6056,3.68934,-0.00120257,1584.89,0.0228265,6.26607,0.0226901,-0.00249142,2.76777,0.44382,0.0101309,48,0.030286,3.68934
2,1,Potentiostatic EIS,8.72929,3.68933,-0.00121635,1258.92,0.022914,3.62667,0.0228681,-0.00144943,2.54188,0.406784,0.00932106,38,0.0301845,3.68933
2,1,Potentiostatic EIS,8.85361,3.68935,-0.00130886,999.999,0.0230862,1.46555,0.0230787,-0.000590451,2.36561,0.446418,0.0103061,30,0.03,3.68935
2,1,Potentiostatic EIS,8.97676,3.68936,-0.00118285,794.328,0.0233189,-0.439952,0.0233182,0.000179055,2.24768,0.436021,0.0101675,24,0.0302142,3.68936
2,1,Potentiostatic EIS,9.10082,3.68936,-0.000970506,630.956,0.0236081,-2.12789,0.0235919,0.000876573,2.18288,0.42707,0.0100823,19,0.030113,3.68936
2,1,Potentiostatic EIS,9.22501,3.68937,-0.000314992,501.187,0.0239255,-3.65622,0.0238768,0.00152572,2.10971,0.420685,0.0100651,15,0.029929,3.68937
2,1,Potentiostatic EIS,9.3056,3.68937,-0.000338224,398.107,0.0243067,-5.0764,0.0242114,0.00215076,2.06067,0.358825,0.00872186,12,0.0301427,3.68937
2,1,Potentiostatic EIS,9.38512,3.68937,-9.98324e-05,316.228,0.0247511,-6.37583,0.024598,0.0027486,1.89072,0.373986,0.00925659,9,0.0284605,3.68937
2,1,Potentiostatic EIS,9.46622,3.68938,-0.000253979,251.189,0.0253174,-7.7018,0.025089,0.00339297,1.73445,0.379552,0.00960928,8,0.0318486,3.68938
2,1,Potentiostatic EIS,9.55491,3.68937,-0.000350582,199.526,0.025963,-8.8777,0.0256519,0.00400676,1.56937,0.377959,0.00981294,8,0.0400951,3.68937
2,1,Potentiostatic EIS,9.65604,3.68938,-0.000404869,158.489,0.0267254,-10.0612,0.0263144,0.00466895,1.31242,0.371679,0.00993327,8,0.0504766,3.68938
2,1,Potentiostatic EIS,9.76982,3.68938,1.75128e-05,125.892,0.0276095,-11.0735,0.0270954,0.0053029,1.16473,0.361697,0.00998626,8,0.0635464,3.68938
2,1,Potentiostatic EIS,9.89866,3.68937,-0.000544097,100,0.0286385,-11.9487,0.028018,0.00592919,0.952432,0.349236,0.0100016,8,0.08,3.68937
2,1,Potentiostatic EIS,10.0502,3.68937,-0.000315342,79.4327,0.0298174,-12.5523,0.0291047,0.00648023,0.795425,0.335545,0.0100051,8,0.100714,3.68937
2,1,Potentiostatic EIS,10.2307,3.68936,-0.00084085,63.0956,0.0310756,-12.8784,0.0302939,0.00692621,0.645753,0.321549,0.00999232,8,0.126792,3.68936
2,1,Potentiostatic EIS,10.4434,3.68937,-8.43958e-05,50.1186,0.0323982,-13.0329,0.0315637,0.00730614,0.53403,0.303915,0.00984631,8,0.159621,3.68937
2,1,Potentiostatic EIS,10.7022,3.68936,-0.000915348,39.8107,0.0337232,-12.8447,0.0328793,0.00749698,0.423709,0.292195,0.00985374,8,0.200951,3.68936
2,1,Potentiostatic EIS,10.8459,3.68937,-0.00100382,31.6228,0.0350705,-12.5305,0.0342352,0.00760885,0.346756,0.282884,0.00992078,2,0.0632456,3.68937
2,1,Potentiostatic EIS,11.0085,3.68937,-0.00138948,25.1188,0.0363163,-12.0488,0.0355163,0.00758083,0.305128,0.266126,0.00966457,2,0.0796217,3.68937
2,1,Potentiostatic EIS,11.2082,3.68938,-0.00129579,19.9526,0.0375639,-11.562,0.0368017,0.00752884,0.265707,0.260038,0.00976805,2,0.100238,3.68938
2,1,Potentiostatic EIS,11.4551,3.68938,-0.00105985,15.8489,0.0387735,-10.9875,0.0380628,0.00739003,0.252896,0.25381,0.00984107,2,0.126192,3.68938
2,1,Potentiostatic EIS,11.7615,3.68937,-0.00126356,12.5892,0.0399636,-10.3669,0.0393112,0.00719151,0.197629,0.247345,0.0098848,2,0.158866,3.68937
2,1,Potentiostatic EIS,12.1428,3.68937,-0.00137928,9.99998,0.0410972,-9.66058,0.0405144,0.00689656,0.211111,0.241256,0.00991493,2,0.2,3.68937
2,1,Potentiostatic EIS,12.6177,3.68938,-0.00111521,7.94328,0.0421582,-8.90358,0.0416502,0.00652492,0.224548,0.235401,0.00992408,2,0.251785,3.68938
2,1,Potentiostatic EIS,13.2112,3.68937,-0.00159276,6.30957,0.0431294,-8.09261,0.0426999,0.00607147,0.206537,0.230672,0.00994873,2,0.316979,3.68937
2,1,Potentiostatic EIS,13.9518,3.68937,-0.00158071,5.01186,0.0439987,-7.23904,0.0436479,0.00554424,0.20298,0.226136,0.0099497,2,0.399053,3.68937
2,1,Potentiostatic EIS,14.8793,3.68937,-0.00129767,3.98106,0.0446904,-6.40949,0.044411,0.00498894,0.189097,0.222829,0.00995832,2,0.502378,3.68937
2,1,Potentiostatic EIS,16.0444,3.68936,-0.0013908,3.16227,0.045297,-5.64172,0.0450776,0.00445304,0.202282,0.219983,0.00996456,2,0.632458,3.68936
2,1,Potentiostatic EIS,17.5074,3.68937,-0.00171304,2.51188,0.0457438,-4.96066,0.0455724,0.00395554,0.189924,0.217742,0.00996033,2,0.796216,3.68937
2,1,Potentiostatic EIS,19.347,3.68936,-0.00166574,1.99526,0.0461115,-4.3844,0.0459766,0.00352512,0.156286,0.216065,0.00996311,2,1.00238,3.68936
2,1,Potentiostatic EIS,21.6569,3.68936,-0.00152282,1.58489,0.046425,-3.93606,0.0463155,0.00318676,0.181143,0.214587,0.0099622,2,1.26192,3.68936
2,1,Potentiostatic EIS,24.5613,3.68937,-0.00175943,1.25892,0.0466724,-3.5528,0.0465827,0.00289221,0.174207,0.213392,0.00995951,2,1.58866,3.68937
2,1,Potentiostatic EIS,28.2137,3.68937,-0.00155708,0.999998,0.0469008,-3.29171,0.0468234,0.00269302,0.155358,0.212585,0.00997039,2,2,3.68937
2,1,Potentiostatic EIS,32.8087,3.68937,-0.00154612,0.794327,0.0470632,-3.16355,0.0469915,0.00259725,0.158159,0.211798,0.00996789,2,2.51785,3.68937
2,1,Potentiostatic EIS,38.5879,3.68938,-0.00176616,0.630956,0.0472573,-3.13898,0.0471864,0.00258772,0.189656,0.210956,0.0099692,2,3.16979,3.68938
2,1,Potentiostatic EIS,45.8626,3.68938,-0.001028,0.501186,0.0474415,-3.17774,0.0473685,0.00262985,0.228371,0.210003,0.00996285,2,3.99054,3.68938
2,1,Potentiostatic EIS,53.153,3.68936,-0.00131605,0.5,0.0474364,-3.17609,0.0473635,0.00262821,0.21981,0.210172,0.00996981,2,4,3.68936