Folder: feature-extraction-paper-2024/Data/P180/P180_04/EIS_02_P180_04_1

Note: README.md
# feature-extraction-paper-2024
Repository for code used and referenced in 2024 feature extraction paper

File: 2_EIS_02_P180_04_1 20230821 144703.csv
Step number,Repeats,Step name,Elapsed Time  (s),DC Working Electrode (V),DC Current (A),Frequency (Hz),|Z| (Ohms),Phase (deg),Z' (Ohms),-Z" (Ohms),THD (%),Amplitude (A),Amplitude (V),No of Cycles,Duration of Each Frequency (s),IR Compensated DC Working Electrode (V)
2,1,Potentiostatic EIS,0,3.72059,-0.0106879,1000000,3.74586,88.6002,0.0915066,-3.74474,1.00275,0.00264551,0.00990997,1430,0.00143,3.72059
2,1,Potentiostatic EIS,0.229509,3.72053,-0.0117238,794328,2.98976,88.0705,0.100662,-2.98806,1.28503,0.00333263,0.00996325,1445,0.00181915,3.72053
2,1,Potentiostatic EIS,0.469723,3.72049,-0.0119376,630957.375,2.38368,87.6698,0.0969183,-2.38171,1.21749,0.00416854,0.00993674,1355,0.00214753,3.72049
2,1,Potentiostatic EIS,0.720943,3.72046,-0.0125295,501187.25,1.89562,87.6733,0.076958,-1.89406,1.21249,0.00515919,0.00977979,1385,0.00276344,3.72046
2,1,Potentiostatic EIS,0.999276,3.72041,-0.0130065,398107,1.52013,87.0672,0.0777774,-1.51814,1.22491,0.00655497,0.00996436,1400,0.00351664,3.72041
2,1,Potentiostatic EIS,1.2977,3.72039,-0.0134098,316228,1.20751,86.5866,0.0718944,-1.20536,1.22333,0.00823763,0.00994701,1370,0.00433232,3.72039
2,1,Potentiostatic EIS,1.62946,3.72034,-0.0140105,251189,0.969582,85.9262,0.06888,-0.967132,1.4077,0.0102731,0.00996071,1340,0.00533464,3.72034
2,1,Potentiostatic EIS,2.17076,3.7203,-0.0147692,199526,0.772144,85.8615,0.0557234,-0.77013,1.3117,0.0127519,0.00984637,1355,0.00679109,3.7203
2,1,Potentiostatic EIS,2.63412,3.72025,-0.0152616,158489,0.621024,84.8813,0.0554077,-0.618547,1.63421,0.0160518,0.00996856,1360,0.00858102,3.72025
2,1,Potentiostatic EIS,3.1653,3.72018,-0.0161494,125893,0.498419,84.3288,0.0492535,-0.495979,1.42923,0.0200414,0.00998902,1370,0.0108823,3.72018
2,1,Potentiostatic EIS,3.89843,3.7201,-0.017519,100000,0.398824,83.4665,0.0453801,-0.396234,1.6575,0.024978,0.00996188,1370,0.0137,3.7201
2,1,Potentiostatic EIS,4.56739,3.72006,-0.0177811,79432.8,0.319633,82.3451,0.0425771,-0.316785,2.07845,0.0312641,0.00999312,1365,0.0171843,3.72006
2,1,Potentiostatic EIS,4.81327,3.71996,-0.0194524,63095.7,0.256872,81.2853,0.03892,-0.253907,1.82259,0.0389136,0.00999584,1290,0.0204451,3.71996
2,1,Potentiostatic EIS,5.07172,3.71993,-0.020262,50118.75,0.206605,80.0404,0.0357333,-0.203492,1.78586,0.0477806,0.00987279,1025,0.0204514,3.71993
2,1,Potentiostatic EIS,5.32632,3.71993,-0.0206077,39810.7,0.167182,78.2512,0.034042,-0.16368,1.98525,0.0595181,0.00995038,815,0.0204719,3.71993
2,1,Potentiostatic EIS,5.63361,3.71991,-0.0195404,31622.8,0.135652,75.9388,0.0329576,-0.131587,1.90732,0.0738952,0.0100241,645,0.0203967,3.71991
2,1,Potentiostatic EIS,5.96732,3.72071,-0.0045682,25118.9,0.110607,73.5938,0.0312404,-0.106103,5.45419,0.0907823,0.0100412,510,0.0203034,3.72071
2,1,Potentiostatic EIS,6.17109,3.72079,-0.00402461,19952.6,0.08956,70.8353,0.0294012,-0.0845965,6.28575,0.110341,0.00988253,405,0.0202981,3.72079
2,1,Potentiostatic EIS,6.37511,3.72076,-0.00363152,15848.9,0.0730715,67.6549,0.0277807,-0.0675846,6.95529,0.135451,0.00989766,320,0.0201906,3.72076
2,1,Potentiostatic EIS,6.57822,3.72079,-0.00324305,12589.2,0.0608014,63.3127,0.0273072,-0.0543243,7.11573,0.165109,0.0100389,255,0.0202554,3.72079
2,1,Potentiostatic EIS,6.88861,3.72076,-0.00317813,9999.98,0.0510741,58.6002,0.02661,-0.0435945,3.50693,0.1959,0.0100054,307,0.0307001,3.72076
2,1,Potentiostatic EIS,7.10496,3.72076,-0.00340654,7943.27,0.0436316,53.5823,0.0259027,-0.0351108,4.31256,0.242121,0.0105641,244,0.0307178,3.72076
2,1,Potentiostatic EIS,7.31702,3.72079,-0.002801,6309.57,0.0368989,48.0311,0.0246753,-0.0274346,4.98599,0.282826,0.0104359,193,0.0305885,3.72079
2,1,Potentiostatic EIS,7.52968,3.72082,-0.00235532,5011.87,0.0327174,40.3022,0.0249517,-0.0211623,5.13134,0.314798,0.0102994,153,0.0305276,3.72082
2,1,Potentiostatic EIS,7.74237,3.72082,-0.00202827,3981.07,0.0300615,33.2889,0.0251288,-0.0164996,4.92865,0.337407,0.010143,122,0.0306451,3.72082
2,1,Potentiostatic EIS,7.91218,3.72083,-0.00193014,3162.27,0.0282628,26.9603,0.0251912,-0.0128136,4.60605,0.348473,0.00984884,97,0.0306742,3.72083
2,1,Potentiostatic EIS,8.08071,3.72083,-0.0018432,2511.88,0.0271006,21.1579,0.0252737,-0.0097817,4.09446,0.385207,0.0104394,77,0.0306543,3.72083
2,1,Potentiostatic EIS,8.2478,3.72085,-0.0016274,1995.26,0.0264193,16.0407,0.0253907,-0.00730018,3.54576,0.387221,0.0102301,61,0.0305725,3.72085
2,1,Potentiostatic EIS,8.3707,3.72085,-0.00152465,1584.89,0.0260825,11.6681,0.0255435,-0.00527498,3.26386,0.325938,0.00850127,48,0.030286,3.72085
2,1,Potentiostatic EIS,8.49571,3.72085,-0.00116246,1258.92,0.0259926,8.01042,0.025739,-0.00362216,2.86776,0.379035,0.00985212,38,0.0301845,3.72085
2,1,Potentiostatic EIS,8.62037,3.72087,-0.0013696,999.999,0.0260658,4.93682,0.0259691,-0.00224315,2.55197,0.394176,0.0102745,30,0.03,3.72087
2,1,Potentiostatic EIS,8.74322,3.72086,-0.00103532,794.328,0.026252,2.34147,0.02623,-0.00107252,2.35796,0.386584,0.0101486,24,0.0302142,3.72086
2,1,Potentiostatic EIS,8.86621,3.72087,-0.00118822,630.956,0.0265241,0.0979969,0.0265241,-4.5366e-05,2.19263,0.380067,0.0100809,19,0.030113,3.72087
2,1,Potentiostatic EIS,8.99053,3.72087,-0.00068771,501.187,0.0268554,-1.85136,0.0268414,0.00086761,2.06534,0.373987,0.0100436,15,0.029929,3.72087
2,1,Potentiostatic EIS,9.07019,3.72087,-0.00077211,398.107,0.0272892,-3.55619,0.0272367,0.00169268,2.00276,0.322988,0.0088141,12,0.0301427,3.72087
2,1,Potentiostatic EIS,9.14861,3.72087,-0.000753839,316.228,0.0277715,-5.18845,0.0276577,0.00251143,1.82991,0.335148,0.00930757,9,0.0284605,3.72087
2,1,Potentiostatic EIS,9.22968,3.72087,-0.000745534,251.189,0.0283885,-6.71225,0.0281939,0.00331814,1.64926,0.339236,0.00963041,8,0.0318486,3.72087
2,1,Potentiostatic EIS,9.31833,3.72088,-0.000399377,199.526,0.0290988,-8.02415,0.0288139,0.00406192,1.50439,0.337562,0.00982267,8,0.0400951,3.72088
2,1,Potentiostatic EIS,9.4183,3.72088,-0.000190258,158.489,0.0299077,-9.20897,0.0295222,0.0047863,1.28197,0.331949,0.00992784,8,0.0504766,3.72088
2,1,Potentiostatic EIS,9.53164,3.72088,-0.000152042,125.892,0.030871,-10.3576,0.0303679,0.00555031,1.12853,0.323395,0.00998351,8,0.0635464,3.72088
2,1,Potentiostatic EIS,9.66158,3.72089,-0.000261024,100,0.031981,-11.3404,0.0313566,0.00628866,0.886983,0.312611,0.00999761,8,0.08,3.72089
2,1,Potentiostatic EIS,9.81395,3.72088,-0.000400717,79.4327,0.0332532,-12.0223,0.0325238,0.00692636,0.725524,0.300778,0.0100018,8,0.100714,3.72088
2,1,Potentiostatic EIS,9.99438,3.72088,-0.000821218,63.0956,0.0346401,-12.4323,0.0338278,0.00745753,0.598678,0.288583,0.00999655,8,0.126792,3.72088
2,1,Potentiostatic EIS,10.2083,3.72088,-0.000157094,50.1186,0.0360679,-12.6573,0.0351914,0.00790318,0.500621,0.2731,0.00985014,8,0.159621,3.72088
2,1,Potentiostatic EIS,10.4663,3.72088,-0.000939146,39.8107,0.0375385,-12.5232,0.0366454,0.00813968,0.385357,0.262753,0.00986335,8,0.200951,3.72088
2,1,Potentiostatic EIS,10.6102,3.72087,-0.00253188,31.6228,0.0389037,-12.3503,0.0380034,0.00832104,0.351236,0.255261,0.0099307,2,0.0632456,3.72087
2,1,Potentiostatic EIS,10.7733,3.72088,-0.0012189,25.1188,0.0404027,-11.8078,0.0395478,0.00826759,0.266386,0.239612,0.00968095,2,0.0796217,3.72088
2,1,Potentiostatic EIS,10.9735,3.72087,-0.00131065,19.9526,0.0417692,-11.3474,0.0409527,0.00821843,0.23639,0.234235,0.00978384,2,0.100238,3.72087
2,1,Potentiostatic EIS,11.2207,3.72088,-0.00126929,15.8489,0.0430895,-10.794,0.0423271,0.00806973,0.200301,0.228499,0.00984588,2,0.126192,3.72088
2,1,Potentiostatic EIS,11.5273,3.72088,-0.00129338,12.5892,0.0443939,-10.1844,0.0436944,0.00784958,0.190684,0.222644,0.00988403,2,0.158866,3.72088
2,1,Potentiostatic EIS,11.9082,3.72088,-0.0013167,9.99998,0.0456379,-9.47982,0.0450147,0.00751658,0.19061,0.217243,0.00991447,2,0.2,3.72088
2,1,Potentiostatic EIS,12.3823,3.72088,-0.00146901,7.94328,0.0468178,-8.77556,0.0462697,0.00714272,0.180363,0.212182,0.00993386,2,0.251785,3.72088
2,1,Potentiostatic EIS,12.9762,3.72087,-0.00163403,6.30957,0.0478776,-7.93235,0.0474195,0.00660729,0.195692,0.207613,0.00994002,2,0.316979,3.72087
2,1,Potentiostatic EIS,13.7169,3.72087,-0.00146075,5.01186,0.0488126,-7.09704,0.0484386,0.0060308,0.159454,0.204026,0.00995905,2,0.399053,3.72087
2,1,Potentiostatic EIS,14.6445,3.72088,-0.00138566,3.98106,0.049579,-6.27479,0.049282,0.00541884,0.17557,0.20097,0.00996392,2,0.502378,3.72088
2,1,Potentiostatic EIS,15.8096,3.72087,-0.00170256,3.16227,0.0502257,-5.52255,0.0499926,0.0048336,0.165772,0.198411,0.00996534,2,0.632458,3.72087
2,1,Potentiostatic EIS,17.2727,3.72087,-0.00164915,2.51188,0.0507396,-4.83621,0.050559,0.00427774,0.175496,0.196488,0.0099697,2,0.796216,3.72087
2,1,Potentiostatic EIS,19.111,3.72086,-0.00158055,1.99526,0.0511588,-4.25142,0.051018,0.00379256,0.156707,0.194834,0.00996748,2,1.00238,3.72086
2,1,Potentiostatic EIS,21.4209,3.72088,-0.00159772,1.58489,0.0514879,-3.77898,0.051376,0.00339346,0.17593,0.193556,0.00996581,2,1.26192,3.72088
2,1,Potentiostatic EIS,24.3255,3.72088,-0.00148766,1.25892,0.0517392,-3.43187,0.0516464,0.00309719,0.149555,0.192664,0.00996826,2,1.58866,3.72088
2,1,Potentiostatic EIS,27.9775,3.72088,-0.00120274,0.999998,0.0519805,-3.16427,0.0519012,0.00286927,0.163332,0.191772,0.00996842,2,2,3.72088
2,1,Potentiostatic EIS,32.5723,3.72088,-0.00170319,0.794327,0.0521537,-3.0182,0.0520814,0.00274606,0.141487,0.191149,0.00996911,2,2.51785,3.72088
2,1,Potentiostatic EIS,38.3513,3.72088,-0.00148286,0.630956,0.0524428,-2.94791,0.0523734,0.00269703,0.171173,0.190066,0.00996761,2,3.16979,3.72088
2,1,Potentiostatic EIS,45.6258,3.72087,-0.0013305,0.501186,0.0526294,-2.96236,0.0525591,0.00271989,0.192945,0.189443,0.00997027,2,3.99054,3.72087
2,1,Potentiostatic EIS,52.9159,3.72087,-0.00137789,0.5,0.0525978,-2.96422,0.0525274,0.00271995,0.186299,0.189632,0.00997422,2,4,3.72087