Folder: feature-extraction-paper-2024/Data/P180/P180_04/EIS_02_P180_04_3

Note: README.md
# feature-extraction-paper-2024
Repository for code used and referenced in 2024 feature extraction paper

File: 2_EIS_02_P180_04_3 20230821 145429.csv
Step number,Repeats,Step name,Elapsed Time  (s),DC Working Electrode (V),DC Current (A),Frequency (Hz),|Z| (Ohms),Phase (deg),Z' (Ohms),-Z" (Ohms),THD (%),Amplitude (A),Amplitude (V),No of Cycles,Duration of Each Frequency (s),IR Compensated DC Working Electrode (V)
2,1,Potentiostatic EIS,0,3.64577,-0.0138449,1000000,3.23143,88.5543,0.081527,-3.2304,1.11186,0.00307057,0.00992229,1430,0.00143,3.64577
2,1,Potentiostatic EIS,0.229102,3.64571,-0.0145143,794328,2.57691,88.09,0.085889,-2.57548,1.21423,0.00384899,0.00991811,1445,0.00181915,3.64571
2,1,Potentiostatic EIS,0.47264,3.64567,-0.0151559,630957.375,2.04837,87.7476,0.0805037,-2.04678,1.0745,0.00476739,0.00976531,1355,0.00214753,3.64567
2,1,Potentiostatic EIS,0.744866,3.64565,-0.0154678,501187.25,1.63718,87.7438,0.0644522,-1.63591,0.98993,0.00608268,0.00995847,1385,0.00276344,3.64565
2,1,Potentiostatic EIS,1.03489,3.64559,-0.0161669,398107,1.30438,87.0968,0.0660647,-1.30271,1.12965,0.00763824,0.00996319,1400,0.00351664,3.64559
2,1,Potentiostatic EIS,1.33489,3.64556,-0.0166072,316228,1.03756,86.7648,0.0585542,-1.03591,1.15277,0.00957713,0.00993689,1370,0.00433232,3.64556
2,1,Potentiostatic EIS,1.66693,3.64552,-0.0172053,251189,0.833141,86.0959,0.0567262,-0.831207,1.1247,0.0119436,0.0099506,1340,0.00533464,3.64552
2,1,Potentiostatic EIS,2.07936,3.64545,-0.0182583,199526,0.662304,85.9579,0.0466849,-0.660656,1.16497,0.0149732,0.00991681,1355,0.00679109,3.64545
2,1,Potentiostatic EIS,2.54322,3.64541,-0.0186793,158489,0.531891,85.0835,0.0455852,-0.529934,1.30533,0.0187378,0.00996647,1360,0.00858102,3.64541
2,1,Potentiostatic EIS,3.30396,3.64532,-0.0197109,125893,0.42662,84.4556,0.0412187,-0.424625,1.38956,0.0233982,0.00998212,1370,0.0108823,3.64532
2,1,Potentiostatic EIS,3.92433,3.64528,-0.0201425,100000,0.340874,83.5518,0.0382815,-0.338717,1.47638,0.029167,0.0099423,1370,0.0137,3.64528
2,1,Potentiostatic EIS,4.60022,3.64521,-0.0208935,79432.8,0.274218,82.4397,0.0360789,-0.271834,2.07446,0.0364334,0.00999072,1365,0.0171843,3.64521
2,1,Potentiostatic EIS,4.84991,3.64513,-0.0225701,63095.7,0.219478,81.3693,0.0329362,-0.216993,1.79069,0.0456604,0.0100215,1290,0.0204451,3.64513
2,1,Potentiostatic EIS,5.10123,3.64512,-0.0232856,50118.75,0.177305,79.8371,0.0312851,-0.174523,1.81794,0.0555976,0.00985877,1025,0.0204514,3.64512
2,1,Potentiostatic EIS,5.44432,3.64508,-0.0227963,39810.7,0.142476,78.0618,0.0294723,-0.139395,1.67639,0.068186,0.00971554,815,0.0204719,3.64508
2,1,Potentiostatic EIS,5.7824,3.64545,-0.0151614,31622.8,0.115978,75.8462,0.0283596,-0.112457,4.46828,0.0836985,0.00970936,645,0.0203967,3.64545
2,1,Potentiostatic EIS,6.00374,3.64584,-0.00634892,25118.9,0.0941162,73.2615,0.0271059,-0.0901284,5.82691,0.106858,0.0100573,510,0.0203034,3.64584
2,1,Potentiostatic EIS,6.22643,3.64593,-0.00537123,19952.6,0.0765749,70.2623,0.0258605,-0.072076,6.54908,0.131281,0.010053,405,0.0202981,3.64593
2,1,Potentiostatic EIS,6.44798,3.64593,-0.00517935,15848.9,0.0625053,66.7014,0.0247223,-0.0574084,6.88217,0.159914,0.00999546,320,0.0201906,3.64593
2,1,Potentiostatic EIS,6.65437,3.64595,-0.00480267,12589.2,0.051967,62.4153,0.0240638,-0.0460598,7.11888,0.188365,0.00978827,255,0.0202554,3.64595
2,1,Potentiostatic EIS,6.95783,3.64589,-0.00472486,9999.98,0.043896,57.4615,0.0236102,-0.0370056,3.44919,0.22769,0.00999469,307,0.0307001,3.64589
2,1,Potentiostatic EIS,7.16909,3.6459,-0.00488221,7943.27,0.0376593,52.3244,0.023017,-0.0298067,4.2043,0.276692,0.01042,244,0.0307178,3.6459
2,1,Potentiostatic EIS,7.38284,3.64591,-0.00420098,6309.57,0.0319675,46.5638,0.0219791,-0.0232129,4.80101,0.330891,0.0105778,193,0.0305885,3.64591
2,1,Potentiostatic EIS,7.59838,3.64592,-0.00430844,5011.87,0.0285455,38.5831,0.0223141,-0.0178023,4.89696,0.364162,0.0103952,153,0.0305276,3.64592
2,1,Potentiostatic EIS,7.81373,3.64594,-0.00386648,3981.07,0.026441,31.6946,0.0224976,-0.0138919,4.70707,0.386334,0.0102151,122,0.0306451,3.64594
2,1,Potentiostatic EIS,7.98445,3.64597,-0.00329933,3162.27,0.0249875,25.5043,0.0225526,-0.0107591,4.45215,0.35716,0.00892455,97,0.0306742,3.64597
2,1,Potentiostatic EIS,8.15322,3.64595,-0.00350698,2511.88,0.0240947,19.9463,0.0226493,-0.00821965,3.93019,0.435507,0.0104934,77,0.0306543,3.64595
2,1,Potentiostatic EIS,8.32776,3.64599,-0.00295458,1995.26,0.0235556,15.0528,0.0227473,-0.00611761,3.47333,0.437505,0.0103057,61,0.0305725,3.64599
2,1,Potentiostatic EIS,8.49508,3.64599,-0.00272534,1584.89,0.0232904,10.8669,0.0228728,-0.0043909,2.98932,0.435356,0.0101396,48,0.030286,3.64599
2,1,Potentiostatic EIS,8.61948,3.646,-0.00258954,1258.92,0.0232163,7.26755,0.0230298,-0.00293693,2.78643,0.39542,0.00918019,38,0.0301845,3.646
2,1,Potentiostatic EIS,8.74635,3.64602,-0.00236667,999.999,0.0232419,4.22363,0.0231788,-0.00171175,2.50338,0.443142,0.0102995,30,0.03,3.64602
2,1,Potentiostatic EIS,8.86997,3.64601,-0.00239315,794.328,0.0234132,1.61009,0.023404,-0.000657859,2.25407,0.434603,0.0101755,24,0.0302142,3.64601
2,1,Potentiostatic EIS,8.99345,3.64601,-0.00239722,630.956,0.0236707,-0.735945,0.0236688,0.000304034,2.11327,0.426633,0.0100987,19,0.030113,3.64601
2,1,Potentiostatic EIS,9.11704,3.64601,-0.00189295,501.187,0.0240051,-2.83931,0.0239757,0.0011891,2.0498,0.418984,0.0100578,15,0.029929,3.64601
2,1,Potentiostatic EIS,9.19598,3.64601,-0.00198424,398.107,0.0244435,-4.69351,0.0243616,0.00200011,1.98921,0.356312,0.00870954,12,0.0301427,3.64601
2,1,Potentiostatic EIS,9.2755,3.64602,-0.00166134,316.228,0.0249491,-6.46437,0.0247904,0.0028089,1.85448,0.37149,0.00926832,9,0.0284605,3.64602
2,1,Potentiostatic EIS,9.35658,3.64602,-0.00178568,251.189,0.0256241,-8.05629,0.0253712,0.0035911,1.69251,0.376066,0.00963634,8,0.0318486,3.64602
2,1,Potentiostatic EIS,9.44614,3.64602,-0.00154652,199.526,0.0263961,-9.51556,0.0260329,0.00436369,1.5297,0.372861,0.00984209,8,0.0400951,3.64602
2,1,Potentiostatic EIS,9.54532,3.64603,-0.00138458,158.489,0.027331,-10.7897,0.0268478,0.00511649,1.32464,0.36467,0.00996679,8,0.0504766,3.64603
2,1,Potentiostatic EIS,9.65889,3.64602,-0.00137548,125.892,0.0283618,-11.8602,0.0277564,0.00582907,1.15177,0.352796,0.0100059,8,0.0635464,3.64602
2,1,Potentiostatic EIS,9.7884,3.64602,-0.00167189,100,0.0295774,-12.7135,0.0288522,0.00650929,0.958627,0.338846,0.0100222,8,0.08,3.64602
2,1,Potentiostatic EIS,9.94042,3.64601,-0.00168104,79.4327,0.0309021,-13.2196,0.0300832,0.00706682,0.791756,0.324165,0.0100174,8,0.100714,3.64601
2,1,Potentiostatic EIS,10.1198,3.64602,-0.00188071,63.0956,0.0323058,-13.377,0.0314293,0.00747418,0.644073,0.309622,0.0100026,8,0.126792,3.64602
2,1,Potentiostatic EIS,10.3337,3.64603,-0.00114162,50.1186,0.033725,-13.3676,0.0328113,0.00779716,0.534277,0.291719,0.00983822,8,0.159621,3.64603
2,1,Potentiostatic EIS,10.5929,3.64601,-0.00211047,39.8107,0.0351602,-13,0.034259,0.00790934,0.414781,0.280247,0.00985352,8,0.200951,3.64601
2,1,Potentiostatic EIS,10.7361,3.64602,-0.00347212,31.6228,0.0364776,-12.5835,0.0356014,0.00794707,0.335381,0.272287,0.00993247,2,0.0632456,3.64602
2,1,Potentiostatic EIS,10.8984,3.64602,-0.00251766,25.1188,0.0378473,-11.9003,0.0370339,0.00780446,0.262743,0.255808,0.00968165,2,0.0796217,3.64602
2,1,Potentiostatic EIS,11.098,3.64602,-0.00245612,19.9526,0.0390949,-11.2234,0.0383472,0.00760923,0.248478,0.250061,0.00977613,2,0.100238,3.64602
2,1,Potentiostatic EIS,11.3452,3.64603,-0.00231991,15.8489,0.040295,-10.5268,0.0396168,0.00736167,0.226096,0.244267,0.00984268,2,0.126192,3.64603
2,1,Potentiostatic EIS,11.6517,3.64603,-0.00225183,12.5892,0.0414002,-9.77455,0.0407992,0.00702859,0.200128,0.238713,0.00988275,2,0.158866,3.64603
2,1,Potentiostatic EIS,12.0325,3.64602,-0.00251692,9.99998,0.042455,-9.0239,0.0419296,0.00665892,0.193544,0.233524,0.00991429,2,0.2,3.64602
2,1,Potentiostatic EIS,12.5073,3.64602,-0.00254028,7.94328,0.0434027,-8.22402,0.0429564,0.00620849,0.191271,0.228949,0.00993701,2,0.251785,3.64602
2,1,Potentiostatic EIS,13.1009,3.64602,-0.00261354,6.30957,0.04427,-7.45089,0.0438962,0.00574078,0.181896,0.224534,0.00994014,2,0.316979,3.64602
2,1,Potentiostatic EIS,13.841,3.64603,-0.00234427,5.01186,0.0450198,-6.68489,0.0447137,0.00524069,0.184755,0.221073,0.00995265,2,0.399053,3.64603
2,1,Potentiostatic EIS,14.7683,3.64603,-0.00241577,3.98106,0.0456564,-5.95076,0.0454104,0.00473337,0.187091,0.218068,0.00995619,2,0.502378,3.64603
2,1,Potentiostatic EIS,15.9331,3.64602,-0.0027675,3.16227,0.0462301,-5.30678,0.046032,0.00427575,0.181299,0.21533,0.00995474,2,0.632458,3.64602
2,1,Potentiostatic EIS,17.3952,3.64602,-0.00255877,2.51188,0.0466649,-4.73864,0.0465054,0.00385502,0.178213,0.213522,0.00996396,2,0.796216,3.64602
2,1,Potentiostatic EIS,19.2337,3.64602,-0.00244237,1.99526,0.0470401,-4.25791,0.0469103,0.00349255,0.176597,0.211677,0.00995732,2,1.00238,3.64602
2,1,Potentiostatic EIS,21.5428,3.64602,-0.00273324,1.58489,0.0473648,-3.87015,0.0472568,0.00319691,0.166553,0.210446,0.00996773,2,1.26192,3.64602
2,1,Potentiostatic EIS,24.4476,3.64602,-0.00235802,1.25892,0.0476295,-3.59932,0.0475356,0.00299012,0.142255,0.209289,0.00996834,2,1.58866,3.64602
2,1,Potentiostatic EIS,28.1,3.64602,-0.0020634,0.999998,0.0478442,-3.39264,0.0477603,0.00283133,0.171178,0.208337,0.0099677,2,2,3.64602
2,1,Potentiostatic EIS,32.6943,3.64603,-0.00229146,0.794327,0.0480771,-3.31908,0.0479964,0.0027835,0.157375,0.207174,0.0099603,2,2.51785,3.64603
2,1,Potentiostatic EIS,38.4734,3.64602,-0.0018741,0.630956,0.0483178,-3.31421,0.048237,0.00279333,0.127869,0.20623,0.00996455,2,3.16979,3.64602
2,1,Potentiostatic EIS,45.7474,3.64603,-0.00157479,0.501186,0.0485063,-3.39997,0.0484209,0.00287671,0.141304,0.205397,0.00996304,2,3.99054,3.64603
2,1,Potentiostatic EIS,53.0376,3.64602,-0.00149344,0.5,0.0484753,-3.41459,0.0483893,0.00288722,0.143827,0.205578,0.00996546,2,4,3.64602