Folder: feature-extraction-paper-2024/Data/P180/P180_04/EIS_04_P180_04_5

Note: README.md
# feature-extraction-paper-2024
Repository for code used and referenced in 2024 feature extraction paper

File: 2_EIS_04_P180_04_5 20230822 153151.csv
Step number,Repeats,Step name,Elapsed Time  (s),DC Working Electrode (V),DC Current (A),Frequency (Hz),|Z| (Ohms),Phase (deg),Z' (Ohms),-Z" (Ohms),THD (%),Amplitude (A),Amplitude (V),No of Cycles,Duration of Each Frequency (s),IR Compensated DC Working Electrode (V)
2,1,Potentiostatic EIS,0,3.6373,-0.0129741,1000000,3.61295,88.2845,0.108157,-3.61133,1.16475,0.00275422,0.0099513,1430,0.00143,3.6373
2,1,Potentiostatic EIS,0.22714,3.63726,-0.0139139,794328,2.87834,87.7527,0.112867,-2.87613,1.33552,0.00344158,0.00990605,1445,0.00181915,3.63726
2,1,Potentiostatic EIS,0.467939,3.63723,-0.0144761,630957.375,2.29909,87.2702,0.109497,-2.29648,1.20213,0.00433488,0.00996631,1355,0.00214753,3.63723
2,1,Potentiostatic EIS,0.722118,3.63721,-0.0149482,501187.25,1.83299,87.2669,0.0874023,-1.8309,1.11071,0.0052985,0.0097115,1385,0.00276344,3.63721
2,1,Potentiostatic EIS,1.00591,3.63717,-0.0154727,398107,1.46295,86.6018,0.0867152,-1.46038,1.28193,0.00679997,0.00994806,1400,0.00351664,3.63717
2,1,Potentiostatic EIS,1.30713,3.63713,-0.0159478,316228,1.16363,86.3025,0.075041,-1.16121,1.19615,0.00852778,0.00992321,1370,0.00433232,3.63713
2,1,Potentiostatic EIS,1.63858,3.63708,-0.016749,251189,0.934901,85.5728,0.0721666,-0.932112,1.39743,0.0106596,0.00996575,1340,0.00533464,3.63708
2,1,Potentiostatic EIS,2.04943,3.63701,-0.0179463,199526,0.745187,85.3019,0.0610347,-0.742683,1.21767,0.013328,0.00993187,1355,0.00679109,3.63701
2,1,Potentiostatic EIS,2.51472,3.63697,-0.018305,158489,0.599494,84.3511,0.0590091,-0.596583,1.41644,0.0165725,0.00993515,1360,0.00858102,3.63697
2,1,Potentiostatic EIS,3.0434,3.63691,-0.0193151,125893,0.482158,83.6833,0.0530487,-0.47923,1.47422,0.020703,0.00998212,1370,0.0108823,3.63691
2,1,Potentiostatic EIS,3.72527,3.63682,-0.0207233,100000,0.385371,82.7298,0.0487685,-0.382273,1.65755,0.0258746,0.00997132,1370,0.0137,3.63682
2,1,Potentiostatic EIS,4.39703,3.63675,-0.0219953,79432.8,0.310626,81.4518,0.046172,-0.307175,2.22751,0.0322449,0.010016,1365,0.0171843,3.63675
2,1,Potentiostatic EIS,4.6466,3.63666,-0.022862,63095.7,0.249772,80.4767,0.0413245,-0.24633,1.88193,0.0400631,0.0100067,1290,0.0204451,3.63666
2,1,Potentiostatic EIS,4.90097,3.63665,-0.0241706,50118.75,0.201343,78.8931,0.0387866,-0.197571,1.95088,0.0493618,0.00993866,1025,0.0204514,3.63665
2,1,Potentiostatic EIS,5.15265,3.63663,-0.0242935,39810.7,0.162788,76.9369,0.0367939,-0.158575,1.8092,0.0611138,0.00994863,815,0.0204719,3.63663
2,1,Potentiostatic EIS,5.49986,3.63712,-0.0130285,31622.8,0.132789,74.5632,0.0353451,-0.127998,4.82479,0.0754345,0.0100169,645,0.0203967,3.63712
2,1,Potentiostatic EIS,5.70809,3.63747,-0.00474678,25118.9,0.108565,72.0652,0.033431,-0.10329,5.52178,0.0901318,0.00978498,510,0.0203034,3.63747
2,1,Potentiostatic EIS,5.91819,3.63749,-0.00487186,19952.6,0.0885219,68.8279,0.0319715,-0.0825466,6.20763,0.111367,0.00985936,405,0.0202981,3.63749
2,1,Potentiostatic EIS,6.12298,3.6375,-0.00427443,15848.9,0.0726701,65.2228,0.0304553,-0.0659804,6.69853,0.135894,0.00987541,320,0.0201906,3.6375
2,1,Potentiostatic EIS,6.32876,3.63752,-0.00347203,12589.2,0.0608422,60.9342,0.029558,-0.0531799,6.93875,0.164759,0.0100242,255,0.0202554,3.63752
2,1,Potentiostatic EIS,6.59083,3.63747,-0.00355767,9999.98,0.0515108,56.0779,0.0287464,-0.0427435,3.42979,0.193175,0.0099506,307,0.0307001,3.63747
2,1,Potentiostatic EIS,6.80427,3.63748,-0.00358203,7943.27,0.0443986,50.9343,0.0279805,-0.0344722,4.20497,0.237978,0.0105659,244,0.0307178,3.63748
2,1,Potentiostatic EIS,7.01574,3.63751,-0.00314834,6309.57,0.0380542,45.377,0.0267307,-0.0270849,4.83778,0.273684,0.0104148,193,0.0305885,3.63751
2,1,Potentiostatic EIS,7.22853,3.63753,-0.00274878,5011.87,0.0341287,37.7943,0.0269691,-0.0209151,4.94954,0.30159,0.0102929,153,0.0305276,3.63753
2,1,Potentiostatic EIS,7.39604,3.63755,-0.00190588,3981.07,0.0316434,31.3462,0.0270248,-0.0164612,4.85632,0.270785,0.00856857,122,0.0306451,3.63755
2,1,Potentiostatic EIS,7.56384,3.63754,-0.00202719,3162.27,0.029937,25.489,0.0270232,-0.012883,4.39955,0.343666,0.0102883,97,0.0306742,3.63754
2,1,Potentiostatic EIS,7.7321,3.63756,-0.00195768,2511.88,0.0288235,20.1879,0.0270528,-0.00994698,3.90753,0.361184,0.0104106,77,0.0306543,3.63756
2,1,Potentiostatic EIS,7.90033,3.63756,-0.00184732,1995.26,0.0281528,15.6003,0.0271157,-0.007571,3.54274,0.362817,0.0102143,61,0.0305725,3.63756
2,1,Potentiostatic EIS,8.02451,3.63756,-0.00174346,1584.89,0.0277944,11.6377,0.027223,-0.00560678,3.16097,0.317773,0.0088323,48,0.030286,3.63756
2,1,Potentiostatic EIS,8.1488,3.63757,-0.00163343,1258.92,0.0276059,8.39711,0.02731,-0.00403138,2.84197,0.367443,0.0101436,38,0.0301845,3.63757
2,1,Potentiostatic EIS,8.27149,3.63759,-0.0014345,999.999,0.0275972,5.67084,0.0274622,-0.00272697,2.56648,0.371374,0.0102489,30,0.03,3.63759
2,1,Potentiostatic EIS,8.39532,3.6376,-0.000805192,794.328,0.0277111,3.32111,0.0276646,-0.00160536,2.40025,0.365718,0.0101345,24,0.0302142,3.6376
2,1,Potentiostatic EIS,8.51946,3.63761,-0.000769991,630.956,0.0278895,1.27438,0.0278826,-0.00062027,2.23796,0.361107,0.0100711,19,0.030113,3.63761
2,1,Potentiostatic EIS,8.64383,3.6376,-0.000597957,501.187,0.0281305,-0.422973,0.0281297,0.000207665,2.06398,0.357028,0.0100434,15,0.029929,3.6376
2,1,Potentiostatic EIS,8.72238,3.6376,-0.000570192,398.107,0.0284652,-1.97376,0.0284484,0.000980394,2.00604,0.308086,0.00876975,12,0.0301427,3.6376
2,1,Potentiostatic EIS,8.80149,3.63759,-0.00057738,316.228,0.0288593,-3.321,0.0288109,0.00167182,1.82688,0.320257,0.00924241,9,0.0284605,3.63759
2,1,Potentiostatic EIS,8.88211,3.6376,-0.000667834,251.189,0.0293583,-4.61033,0.0292633,0.00235978,1.64106,0.325405,0.00955335,8,0.0318486,3.6376
2,1,Potentiostatic EIS,8.97168,3.63762,-0.000529253,199.526,0.0299349,-5.62969,0.0297905,0.00293657,1.47093,0.325491,0.00974354,8,0.0400951,3.63762
2,1,Potentiostatic EIS,9.07224,3.6376,-0.000596814,158.489,0.0306046,-6.59641,0.030402,0.0035157,1.24933,0.322132,0.00985872,8,0.0504766,3.6376
2,1,Potentiostatic EIS,9.18555,3.6376,-0.000429027,125.892,0.0313853,-7.39573,0.0311242,0.00403997,1.06951,0.316065,0.0099198,8,0.0635464,3.6376
2,1,Potentiostatic EIS,9.31488,3.63761,-0.000514314,100,0.0322371,-7.99794,0.0319235,0.00448538,0.879999,0.308494,0.00994495,8,0.08,3.63761
2,1,Potentiostatic EIS,9.4663,3.63761,-0.000315765,79.4327,0.0331458,-8.36839,0.0327929,0.00482395,0.721442,0.30027,0.0099527,8,0.100714,3.63761
2,1,Potentiostatic EIS,9.64556,3.63761,-0.000476871,63.0956,0.0341046,-8.53567,0.0337268,0.00506197,0.593368,0.291824,0.00995252,8,0.126792,3.63761
2,1,Potentiostatic EIS,9.8609,3.6376,-0.000119582,50.1186,0.0350579,-8.58842,0.0346648,0.0052354,0.505153,0.27915,0.00978642,8,0.159621,3.6376
2,1,Potentiostatic EIS,10.1203,3.63759,-0.00106607,39.8107,0.0359928,-8.46669,0.0356006,0.00529938,0.394345,0.272623,0.00981247,8,0.200951,3.63759
2,1,Potentiostatic EIS,10.2645,3.63759,-0.0010501,31.6228,0.0369409,-8.24575,0.036559,0.00529804,0.326523,0.268422,0.00991568,2,0.0632456,3.63759
2,1,Potentiostatic EIS,10.4266,3.63759,-0.00106847,25.1188,0.0377819,-7.92742,0.0374208,0.00521083,0.312644,0.255694,0.00966047,2,0.0796217,3.63759
2,1,Potentiostatic EIS,10.6263,3.6376,-0.000914699,19.9526,0.0386599,-7.64192,0.0383166,0.00514106,0.24691,0.252539,0.00976312,2,0.100238,3.6376
2,1,Potentiostatic EIS,10.8734,3.6376,-0.00112864,15.8489,0.0395074,-7.2676,0.03919,0.00499783,0.242894,0.249044,0.00983913,2,0.126192,3.6376
2,1,Potentiostatic EIS,11.1797,3.6376,-0.00119088,12.5892,0.0403031,-6.7765,0.0400215,0.00475563,0.220263,0.245241,0.009884,2,0.158866,3.6376
2,1,Potentiostatic EIS,11.5611,3.63761,-0.000980808,9.99998,0.0410423,-6.26673,0.040797,0.00448006,0.207879,0.241335,0.00990491,2,0.2,3.63761
2,1,Potentiostatic EIS,12.0361,3.6376,-0.00120195,7.94328,0.0417242,-5.70777,0.0415173,0.00414967,0.203036,0.237921,0.00992707,2,0.251785,3.6376
2,1,Potentiostatic EIS,12.6298,3.63761,-0.00117196,6.30957,0.0423109,-5.12079,0.042142,0.00377649,0.1864,0.234933,0.00994025,2,0.316979,3.63761
2,1,Potentiostatic EIS,13.3728,3.63761,-0.00137267,5.01186,0.0428075,-4.55918,0.042672,0.00340271,0.186988,0.232331,0.0099455,2,0.399053,3.63761
2,1,Potentiostatic EIS,14.3003,3.63761,-0.00121979,3.98106,0.0432116,-4.02423,0.0431051,0.00303252,0.214029,0.230304,0.00995182,2,0.502378,3.63761
2,1,Potentiostatic EIS,15.466,3.6376,-0.00135075,3.16227,0.0435253,-3.57526,0.0434406,0.00271422,0.167502,0.228653,0.0099522,2,0.632458,3.6376
2,1,Potentiostatic EIS,16.929,3.63759,-0.00170812,2.51188,0.0437861,-3.19417,0.0437181,0.00243976,0.163885,0.22735,0.00995476,2,0.796216,3.63759
2,1,Potentiostatic EIS,18.7683,3.6376,-0.00124894,1.99526,0.0439929,-2.91146,0.0439362,0.00223452,0.182398,0.226545,0.00996636,2,1.00238,3.6376
2,1,Potentiostatic EIS,21.0784,3.63759,-0.00137457,1.58489,0.0441528,-2.67359,0.0441048,0.00205955,0.166776,0.225602,0.00996095,2,1.26192,3.63759
2,1,Potentiostatic EIS,23.9827,3.63759,-0.00173777,1.25892,0.0443215,-2.52682,0.0442784,0.001954,0.143864,0.224702,0.00995914,2,1.58866,3.63759
2,1,Potentiostatic EIS,27.6351,3.6376,-0.00130948,0.999998,0.0444652,-2.47149,0.0444239,0.00191744,0.175727,0.224121,0.00996558,2,2,3.6376
2,1,Potentiostatic EIS,32.2301,3.63761,-0.00119356,0.794327,0.0446108,-2.48136,0.0445689,0.00193139,0.159915,0.223513,0.00997109,2,2.51785,3.63761
2,1,Potentiostatic EIS,38.0084,3.6376,-0.00180346,0.630956,0.0447669,-2.54176,0.0447229,0.0019853,0.149895,0.222631,0.00996651,2,3.16979,3.6376
2,1,Potentiostatic EIS,45.2829,3.6376,-0.00107126,0.501186,0.0449223,-2.69612,0.0448726,0.00211309,0.150261,0.221828,0.00996503,2,3.99054,3.6376
2,1,Potentiostatic EIS,52.5724,3.6376,-0.00123934,0.5,0.0449235,-2.71905,0.0448729,0.0021311,0.137284,0.221833,0.0099655,2,4,3.6376