Folder: feature-extraction-paper-2024/Data/P180/P180_04/EIS_06_P180_04_3

Note: README.md
# feature-extraction-paper-2024
Repository for code used and referenced in 2024 feature extraction paper

File: 2_EIS_06_P180_04_3 20230824 145850.csv
Step number,Repeats,Step name,Elapsed Time  (s),DC Working Electrode (V),DC Current (A),Frequency (Hz),|Z| (Ohms),Phase (deg),Z' (Ohms),-Z" (Ohms),THD (%),Amplitude (A),Amplitude (V),No of Cycles,Duration of Each Frequency (s),IR Compensated DC Working Electrode (V)
2,1,Potentiostatic EIS,0,3.46921,-0.00941133,1000000,2.40379,87.6947,0.0966906,-2.40184,1.01534,0.00413027,0.00992827,1430,0.00143,3.46921
2,1,Potentiostatic EIS,0.245758,3.46914,-0.0107506,794328,1.92529,87.3761,0.0881388,-1.92327,1.04566,0.00517334,0.00996011,1445,0.00181915,3.46914
2,1,Potentiostatic EIS,0.502152,3.4691,-0.0115093,630957.375,1.53674,86.7556,0.0869728,-1.53428,0.953203,0.00648009,0.00995818,1355,0.00214753,3.4691
2,1,Potentiostatic EIS,0.774054,3.46902,-0.0127433,501187.25,1.22781,86.8214,0.06808,-1.22592,1.07292,0.00809943,0.00994457,1385,0.00276344,3.46902
2,1,Potentiostatic EIS,1.05986,3.46899,-0.0135529,398107,0.981416,86.0538,0.0675414,-0.979089,1.10579,0.0101423,0.00995386,1400,0.00351664,3.46899
2,1,Potentiostatic EIS,1.40181,3.46894,-0.0140795,316228,0.783401,85.5767,0.0604194,-0.781068,1.27225,0.01242,0.00972952,1370,0.00433232,3.46894
2,1,Potentiostatic EIS,1.76473,3.46886,-0.0154351,251189,0.628637,84.8547,0.0563776,-0.626104,1.17318,0.0158553,0.00996723,1340,0.00533464,3.46886
2,1,Potentiostatic EIS,2.18123,3.46878,-0.0165858,199526,0.501198,84.4531,0.0484465,-0.498851,1.42398,0.0197957,0.00992158,1355,0.00679109,3.46878
2,1,Potentiostatic EIS,2.6491,3.46869,-0.0181605,158489,0.403171,83.463,0.0458989,-0.40055,1.44129,0.0246947,0.00995619,1360,0.00858102,3.46869
2,1,Potentiostatic EIS,3.17539,3.46861,-0.019796,125893,0.325753,82.6552,0.0416441,-0.32308,1.69254,0.0301689,0.00982775,1370,0.0108823,3.46861
2,1,Potentiostatic EIS,3.85923,3.46849,-0.0216295,100000,0.260305,81.5594,0.0382086,-0.257485,1.78152,0.0382544,0.00995784,1370,0.0137,3.46849
2,1,Potentiostatic EIS,4.52537,3.46844,-0.0220376,79432.8,0.209925,80.1125,0.0360471,-0.206807,2.49012,0.0464183,0.00974446,1365,0.0171843,3.46844
2,1,Potentiostatic EIS,4.81783,3.46833,-0.0238439,63095.7,0.169276,78.5697,0.0335465,-0.165919,1.90367,0.0588559,0.00996291,1290,0.0204451,3.46833
2,1,Potentiostatic EIS,5.07607,3.46827,-0.0253892,50118.75,0.137122,76.7171,0.031505,-0.133454,1.93919,0.0725335,0.00994596,1025,0.0204514,3.46827
2,1,Potentiostatic EIS,5.43738,3.46893,-0.0100851,39810.7,0.111279,74.4717,0.029791,-0.107217,5.01506,0.0893905,0.00994729,815,0.0204719,3.46893
2,1,Potentiostatic EIS,5.66403,3.46892,-0.0101854,31622.8,0.0913377,71.7038,0.0286736,-0.0867203,5.72867,0.110638,0.0101052,645,0.0203967,3.46892
2,1,Potentiostatic EIS,5.89052,3.46926,-0.00269537,25118.9,0.0748528,68.624,0.0272829,-0.0697036,6.492,0.13504,0.0101082,510,0.0203034,3.46926
2,1,Potentiostatic EIS,6.1281,3.46929,-0.00223604,19952.6,0.061721,64.9557,0.0261277,-0.0559181,6.87258,0.163559,0.010095,405,0.0202981,3.46929
2,1,Potentiostatic EIS,6.36239,3.46933,-0.00115312,15848.9,0.0511958,60.7853,0.0249878,-0.0446835,7.09462,0.195901,0.0100295,320,0.0201906,3.46933
2,1,Potentiostatic EIS,6.5866,3.46936,-0.000482755,12589.2,0.043437,55.7034,0.0244757,-0.0358847,7.03388,0.230339,0.0100052,255,0.0202554,3.46936
2,1,Potentiostatic EIS,6.93756,3.46959,0.000276591,9999.98,0.0375531,50.2907,0.0239924,-0.0288895,3.2322,0.266395,0.010004,307,0.0307001,3.46959
2,1,Potentiostatic EIS,7.14939,3.46959,0.000295563,7943.27,0.0330368,44.8669,0.0234148,-0.0233062,3.91752,0.281083,0.00928607,244,0.0307178,3.46959
2,1,Potentiostatic EIS,7.35989,3.4696,0.000533567,6309.57,0.0287752,39.1078,0.0223284,-0.0181509,4.30882,0.36357,0.0104618,193,0.0305885,3.4696
2,1,Potentiostatic EIS,7.57027,3.46962,0.00103073,5011.87,0.0265096,31.248,0.0226639,-0.0137517,4.34649,0.393707,0.010437,153,0.0305276,3.46962
2,1,Potentiostatic EIS,7.78052,3.46966,0.00142319,3981.07,0.025226,25.0138,0.02286,-0.0106665,4.13322,0.406175,0.0102462,122,0.0306451,3.46966
2,1,Potentiostatic EIS,7.94878,3.46968,0.0020658,3162.27,0.024365,19.709,0.0229376,-0.00821693,3.92604,0.362221,0.00882549,97,0.0306742,3.46968
2,1,Potentiostatic EIS,8.11904,3.46965,0.00131275,2511.88,0.0238423,15.0737,0.023022,-0.00620045,3.44905,0.439964,0.0104898,77,0.0306543,3.46965
2,1,Potentiostatic EIS,8.28749,3.46968,0.00187069,1995.26,0.0235743,11.0943,0.0231337,-0.00453625,3.15555,0.436936,0.0103004,61,0.0305725,3.46968
2,1,Potentiostatic EIS,8.4586,3.46972,0.00273168,1584.89,0.0234571,7.69888,0.0232457,-0.00314248,2.7999,0.431785,0.0101284,48,0.030286,3.46972
2,1,Potentiostatic EIS,8.58206,3.46971,0.00269347,1258.92,0.0234639,4.82369,0.0233808,-0.00197307,2.60491,0.398208,0.00934351,38,0.0301845,3.46971
2,1,Potentiostatic EIS,8.70631,3.46973,0.00277264,999.999,0.0235757,2.40299,0.023555,-0.000988476,2.35086,0.437232,0.0103081,30,0.03,3.46973
2,1,Potentiostatic EIS,8.82943,3.46972,0.00276053,794.328,0.0237751,0.238466,0.0237749,-9.89521e-05,2.20297,0.427443,0.0101625,24,0.0302142,3.46972
2,1,Potentiostatic EIS,8.95313,3.46974,0.00296369,630.956,0.0240553,-1.64452,0.0240454,0.000690345,2.13172,0.41911,0.0100818,19,0.030113,3.46974
2,1,Potentiostatic EIS,9.07742,3.46974,0.00345276,501.187,0.0244018,-3.32942,0.0243606,0.00141717,2.05301,0.412117,0.0100564,15,0.029929,3.46974
2,1,Potentiostatic EIS,9.15691,3.46974,0.00318432,398.107,0.0248305,-4.90138,0.0247397,0.00212154,2.00519,0.351857,0.00873676,12,0.0301427,3.46974
2,1,Potentiostatic EIS,9.23721,3.46974,0.00317262,316.228,0.0253364,-6.35257,0.0251809,0.00280338,1.85749,0.366051,0.00927443,9,0.0284605,3.46974
2,1,Potentiostatic EIS,9.31864,3.46975,0.00335344,251.189,0.0259486,-7.70554,0.0257143,0.00347925,1.66714,0.370505,0.0096141,8,0.0318486,3.46975
2,1,Potentiostatic EIS,9.40784,3.46975,0.00353626,199.526,0.0267037,-8.83312,0.026387,0.00410054,1.54537,0.367854,0.00982305,8,0.0400951,3.46975
2,1,Potentiostatic EIS,9.50832,3.46975,0.00350331,158.489,0.0275446,-9.8186,0.0271412,0.00469717,1.30662,0.360659,0.00993421,8,0.0504766,3.46975
2,1,Potentiostatic EIS,9.62204,3.46975,0.00355437,125.892,0.0284909,-10.645,0.0280006,0.00526295,1.14729,0.350394,0.00998305,8,0.0635464,3.46975
2,1,Potentiostatic EIS,9.75108,3.46974,0.00338941,100,0.0295532,-11.2529,0.0289851,0.00576702,0.929356,0.338263,0.00999675,8,0.08,3.46974
2,1,Potentiostatic EIS,9.90311,3.46974,0.00329248,79.4327,0.0306918,-11.5616,0.0300691,0.00615132,0.785258,0.325582,0.00999269,8,0.100714,3.46974
2,1,Potentiostatic EIS,10.083,3.46975,0.00306127,63.0956,0.031876,-11.6648,0.0312176,0.00644489,0.63897,0.313155,0.00998212,8,0.126792,3.46975
2,1,Potentiostatic EIS,10.2969,3.46975,0.00371115,50.1186,0.0330699,-11.5865,0.032396,0.00664201,0.521937,0.295952,0.0097871,8,0.159621,3.46975
2,1,Potentiostatic EIS,10.556,3.46974,0.00278864,39.8107,0.0342584,-11.2544,0.0335996,0.00668607,0.405377,0.286443,0.00981309,8,0.200951,3.46974
2,1,Potentiostatic EIS,10.7,3.46975,0.00149529,31.6228,0.0353817,-10.9061,0.0347427,0.00669421,0.333092,0.280164,0.0099128,2,0.0632456,3.46975
2,1,Potentiostatic EIS,10.8624,3.46975,0.00183915,25.1188,0.036509,-10.257,0.0359256,0.00650091,0.270469,0.264615,0.0096608,2,0.0796217,3.46975
2,1,Potentiostatic EIS,11.062,3.46974,0.00191492,19.9526,0.037575,-9.61767,0.0370468,0.00627775,0.228298,0.259969,0.00976831,2,0.100238,3.46974
2,1,Potentiostatic EIS,11.3092,3.46974,0.00207696,15.8489,0.0385548,-8.94426,0.038086,0.00599425,0.227534,0.255089,0.0098349,2,0.126192,3.46974
2,1,Potentiostatic EIS,11.6158,3.46976,0.00213035,12.5892,0.0394546,-8.23374,0.0390479,0.00565037,0.202008,0.250477,0.00988255,2,0.158866,3.46976
2,1,Potentiostatic EIS,11.997,3.46974,0.00164673,9.99998,0.0402513,-7.50629,0.0399064,0.00525823,0.200453,0.24629,0.00991352,2,0.2,3.46974
2,1,Potentiostatic EIS,12.4721,3.46975,0.00166219,7.94328,0.0409828,-6.75088,0.0406986,0.00481763,0.184521,0.242234,0.00992744,2,0.251785,3.46975
2,1,Potentiostatic EIS,13.066,3.46975,0.00158016,6.30957,0.0416038,-6.082,0.0413696,0.00440799,0.160938,0.239021,0.0099442,2,0.316979,3.46975
2,1,Potentiostatic EIS,13.8066,3.46976,0.00172233,5.01186,0.0421219,-5.42086,0.0419335,0.00397928,0.167104,0.236187,0.00994866,2,0.399053,3.46976
2,1,Potentiostatic EIS,14.7345,3.46975,0.00125812,3.98106,0.0425541,-4.87492,0.0424001,0.00361628,0.179166,0.233794,0.00994891,2,0.502378,3.46975
2,1,Potentiostatic EIS,15.8994,3.46975,0.000895771,3.16227,0.0429323,-4.37024,0.0428075,0.00327149,0.177221,0.23185,0.00995385,2,0.632458,3.46975
2,1,Potentiostatic EIS,17.3627,3.46975,0.00105252,2.51188,0.043261,-3.9819,0.0431566,0.0030041,0.166981,0.230148,0.00995643,2,0.796216,3.46975
2,1,Potentiostatic EIS,19.2016,3.46975,0.000814895,1.99526,0.0435034,-3.67934,0.0434137,0.00279172,0.182756,0.229041,0.00996406,2,1.00238,3.46975
2,1,Potentiostatic EIS,21.5112,3.46975,0.000161437,1.58489,0.0437529,-3.46031,0.0436731,0.0026408,0.166049,0.227602,0.00995823,2,1.26192,3.46975
2,1,Potentiostatic EIS,24.416,3.46976,0.000574111,1.25892,0.0439846,-3.32441,0.0439106,0.00255064,0.170263,0.22652,0.0099634,2,1.58866,3.46976
2,1,Potentiostatic EIS,28.0676,3.46976,0.00030596,0.999998,0.044178,-3.2965,0.0441049,0.00254036,0.17735,0.225623,0.00996759,2,2,3.46976
2,1,Potentiostatic EIS,32.6623,3.46976,-0.000352979,0.794327,0.0443833,-3.36345,0.0443069,0.00260395,0.176982,0.224455,0.00996207,2,2.51785,3.46976
2,1,Potentiostatic EIS,38.4416,3.46976,0.000367604,0.630956,0.0445756,-3.50992,0.044492,0.00272898,0.159523,0.223485,0.00996201,2,3.16979,3.46976
2,1,Potentiostatic EIS,45.716,3.46975,-0.000382206,0.501186,0.044793,-3.74958,0.0446971,0.00292928,0.123541,0.22247,0.0099651,2,3.99054,3.46975
2,1,Potentiostatic EIS,53.0062,3.46975,-0.000486429,0.5,0.0447734,-3.73618,0.0446783,0.00291754,0.111788,0.222518,0.00996288,2,4,3.46975