Folder: feature-extraction-paper-2024/Data/P180/P180_04/EIS_06_P180_04_5

Note: README.md
# feature-extraction-paper-2024
Repository for code used and referenced in 2024 feature extraction paper

File: 2_EIS_06_P180_04_5 20230824 150616.csv
Step number,Repeats,Step name,Elapsed Time  (s),DC Working Electrode (V),DC Current (A),Frequency (Hz),|Z| (Ohms),Phase (deg),Z' (Ohms),-Z" (Ohms),THD (%),Amplitude (A),Amplitude (V),No of Cycles,Duration of Each Frequency (s),IR Compensated DC Working Electrode (V)
2,1,Potentiostatic EIS,0,3.61254,-0.00822705,1000000,3.59768,87.7108,0.143701,-3.59481,1.24724,0.00275717,0.00991949,1430,0.00143,3.61254
2,1,Potentiostatic EIS,0.225507,3.61249,-0.00875203,794328,2.88238,87.2092,0.140343,-2.87896,1.32947,0.00344188,0.00992141,1445,0.00181915,3.61249
2,1,Potentiostatic EIS,0.460012,3.61244,-0.00911951,630957.375,2.29475,86.5584,0.137755,-2.29061,1.21041,0.00433277,0.00994254,1355,0.00214753,3.61244
2,1,Potentiostatic EIS,0.710521,3.61242,-0.00946722,501187.25,1.83366,86.3304,0.117358,-1.8299,1.22223,0.00529156,0.00970262,1385,0.00276344,3.61242
2,1,Potentiostatic EIS,0.987988,3.61239,-0.00983692,398107,1.46522,85.3599,0.118531,-1.46042,1.16705,0.00679834,0.00996104,1400,0.00351664,3.61239
2,1,Potentiostatic EIS,1.28513,3.61235,-0.0101319,316228,1.16612,84.5578,0.110596,-1.16086,1.33238,0.00852113,0.0099367,1370,0.00433232,3.61235
2,1,Potentiostatic EIS,1.61512,3.61231,-0.0104608,251189,0.937825,83.4671,0.106699,-0.931736,1.16924,0.0106325,0.00997149,1340,0.00533464,3.61231
2,1,Potentiostatic EIS,2.01525,3.61225,-0.0111952,199526,0.747721,82.7358,0.0945449,-0.741719,1.28637,0.0130667,0.00976993,1355,0.00679109,3.61225
2,1,Potentiostatic EIS,2.48207,3.6122,-0.0113904,158489,0.603235,81.0324,0.0940302,-0.595862,1.32923,0.0165257,0.0099689,1360,0.00858102,3.6122
2,1,Potentiostatic EIS,3.00629,3.61212,-0.011942,125893,0.486109,79.3534,0.0898088,-0.477741,1.60226,0.0205154,0.00997277,1370,0.0108823,3.61212
2,1,Potentiostatic EIS,3.61544,3.61207,-0.0127605,100000,0.390861,77.6384,0.0836756,-0.3818,1.49362,0.0254925,0.00996405,1370,0.0137,3.61207
2,1,Potentiostatic EIS,4.40298,3.61202,-0.0131945,79432.8,0.316228,75.1246,0.0811812,-0.30563,1.7646,0.0316055,0.00999458,1365,0.0171843,3.61202
2,1,Potentiostatic EIS,4.63896,3.61197,-0.0135474,63095.7,0.256361,72.3539,0.0777122,-0.244298,1.43355,0.0389581,0.00998737,1290,0.0204451,3.61197
2,1,Potentiostatic EIS,4.88558,3.61194,-0.0141279,50118.75,0.208439,68.8624,0.0751647,-0.194414,1.60987,0.0473588,0.00987053,1025,0.0204514,3.61194
2,1,Potentiostatic EIS,5.12871,3.61192,-0.0141997,39810.7,0.173413,65.0108,0.0732578,-0.157179,1.82459,0.0573762,0.00994976,815,0.0204719,3.61192
2,1,Potentiostatic EIS,5.37383,3.61191,-0.0139767,31622.8,0.146058,60.4648,0.0720005,-0.127078,1.71873,0.0687292,0.0100385,645,0.0203967,3.61191
2,1,Potentiostatic EIS,5.64317,3.61212,-0.0108637,25118.9,0.123759,55.4814,0.0701308,-0.10197,1.57612,0.080967,0.0100204,510,0.0203034,3.61212
2,1,Potentiostatic EIS,5.96173,3.6127,-0.00454205,19952.6,0.106569,49.8628,0.0686966,-0.0814723,4.93752,0.0937711,0.00999318,405,0.0202981,3.6127
2,1,Potentiostatic EIS,6.1653,3.61279,-0.00444525,15848.9,0.0935018,44.1985,0.0670341,-0.0651845,5.07418,0.107644,0.0100649,320,0.0201906,3.61279
2,1,Potentiostatic EIS,6.36623,3.61278,-0.00380644,12589.2,0.0845831,38.245,0.0664291,-0.0523591,4.8944,0.118337,0.0100096,255,0.0202554,3.61278
2,1,Potentiostatic EIS,6.71949,3.61273,-0.00379504,9999.98,0.078031,32.5632,0.0657644,-0.0419986,2.36699,0.127972,0.00998582,307,0.0307001,3.61273
2,1,Potentiostatic EIS,6.88852,3.61275,-0.00354869,7943.27,0.073326,27.5038,0.0650387,-0.0338625,2.743,0.123665,0.00906787,244,0.0307178,3.61275
2,1,Potentiostatic EIS,7.05545,3.61276,-0.00345732,6309.57,0.069146,22.4758,0.0638938,-0.026434,3.18209,0.153231,0.0105953,193,0.0305885,3.61276
2,1,Potentiostatic EIS,7.22336,3.61277,-0.00333472,5011.87,0.0672922,17.5934,0.0641447,-0.0203397,3.2063,0.154312,0.010384,153,0.0305276,3.61277
2,1,Potentiostatic EIS,7.39177,3.6128,-0.00295559,3981.07,0.0662387,13.9652,0.0642808,-0.0159856,3.08768,0.153817,0.0101886,122,0.0306451,3.6128
2,1,Potentiostatic EIS,7.51719,3.61277,-0.00318591,3162.27,0.0655353,10.9861,0.0643343,-0.0124892,2.94767,0.145293,0.0095218,97,0.0306742,3.61277
2,1,Potentiostatic EIS,7.64023,3.61278,-0.00312317,2511.88,0.0650558,8.48082,0.0643444,-0.00959431,2.78214,0.159584,0.0103819,77,0.0306543,3.61278
2,1,Potentiostatic EIS,7.76395,3.61281,-0.00283837,1995.26,0.0648444,6.43215,0.0644362,-0.0072643,2.68343,0.157973,0.0102437,61,0.0305725,3.61281
2,1,Potentiostatic EIS,7.88736,3.6128,-0.00300594,1584.89,0.0647282,4.71132,0.0645095,-0.00531648,2.50197,0.156508,0.0101305,48,0.030286,3.6128
2,1,Potentiostatic EIS,8.01214,3.61279,-0.0031128,1258.92,0.064768,3.34437,0.0646577,-0.00377838,2.41102,0.155676,0.0100828,38,0.0301845,3.61279
2,1,Potentiostatic EIS,8.13701,3.6128,-0.00301295,999.999,0.0648835,2.21325,0.0648351,-0.00250572,2.17219,0.154659,0.0100348,30,0.03,3.6128
2,1,Potentiostatic EIS,8.21668,3.61279,-0.0028852,794.328,0.0650231,1.28592,0.0650067,-0.00145923,2.02176,0.136162,0.00885371,24,0.0302142,3.61279
2,1,Potentiostatic EIS,8.2969,3.6128,-0.00294148,630.956,0.0652531,0.418911,0.0652514,-0.000477086,1.79767,0.141718,0.00924752,19,0.030113,3.6128
2,1,Potentiostatic EIS,8.3774,3.61281,-0.00276937,501.187,0.0655141,-0.304605,0.0655132,0.000348295,1.59927,0.138813,0.00909419,15,0.029929,3.61281
2,1,Potentiostatic EIS,8.45807,3.61281,-0.00279565,398.107,0.0658322,-0.940825,0.0658233,0.00108095,1.39747,0.143007,0.00941449,12,0.0301427,3.61281
2,1,Potentiostatic EIS,8.53705,3.61282,-0.0026999,316.228,0.0662061,-1.53639,0.0661823,0.0017751,1.17972,0.145408,0.00962693,9,0.0284605,3.61282
2,1,Potentiostatic EIS,8.61775,3.61282,-0.0027254,251.189,0.0666885,-2.12044,0.0666429,0.00246749,0.997529,0.1465,0.00976984,8,0.0318486,3.61282
2,1,Potentiostatic EIS,8.70959,3.61281,-0.00270649,199.526,0.0672513,-2.60636,0.0671818,0.00305818,0.819476,0.146502,0.00985245,8,0.0400951,3.61281
2,1,Potentiostatic EIS,8.8105,3.6128,-0.00275212,158.489,0.0678697,-3.08142,0.0677716,0.00364833,0.685192,0.145931,0.00990429,8,0.0504766,3.6128
2,1,Potentiostatic EIS,8.92443,3.6128,-0.00274064,125.892,0.0686112,-3.47729,0.0684849,0.00416147,0.542517,0.144883,0.0099406,8,0.0635464,3.6128
2,1,Potentiostatic EIS,9.05316,3.6128,-0.00283272,100,0.0694729,-3.83095,0.0693177,0.00464168,0.41401,0.143356,0.00995936,8,0.08,3.6128
2,1,Potentiostatic EIS,9.20597,3.6128,-0.00279023,79.4327,0.0704056,-4.12994,0.0702228,0.00507052,0.371871,0.141622,0.00997095,8,0.100714,3.6128
2,1,Potentiostatic EIS,9.38672,3.61282,-0.0026892,63.0956,0.0713822,-4.26742,0.0711843,0.00531168,0.303619,0.139731,0.00997427,8,0.126792,3.61282
2,1,Potentiostatic EIS,9.60973,3.61283,-0.00245856,50.1186,0.0723723,-4.38144,0.0721608,0.00552896,0.235734,0.13535,0.00979561,8,0.159621,3.61283
2,1,Potentiostatic EIS,9.87471,3.6128,-0.0029101,39.8107,0.0733531,-4.37243,0.0731396,0.00559239,0.202588,0.134006,0.00982979,8,0.200951,3.6128
2,1,Potentiostatic EIS,10.0275,3.61281,-0.00281598,31.6228,0.0743741,-4.34055,0.0741608,0.00562896,0.19923,0.133353,0.00991795,2,0.0632456,3.61281
2,1,Potentiostatic EIS,10.1901,3.61281,-0.00292163,25.1188,0.0753101,-4.1994,0.0751079,0.00551478,0.203377,0.128502,0.00967747,2,0.0796217,3.61281
2,1,Potentiostatic EIS,10.3895,3.61282,-0.00281599,19.9526,0.0762605,-4.07435,0.0760678,0.00541838,0.173556,0.128256,0.00978085,2,0.100238,3.61282
2,1,Potentiostatic EIS,10.6364,3.61283,-0.00280276,15.8489,0.07717,-3.89451,0.0769918,0.00524136,0.167331,0.127675,0.00985272,2,0.126192,3.61283
2,1,Potentiostatic EIS,10.9426,3.61282,-0.0028609,12.5892,0.0780699,-3.69906,0.0779072,0.00503675,0.135334,0.126825,0.00990126,2,0.158866,3.61282
2,1,Potentiostatic EIS,11.3235,3.61282,-0.00280244,9.99998,0.0788784,-3.43183,0.078737,0.00472174,0.150513,0.125884,0.00992954,2,0.2,3.61282
2,1,Potentiostatic EIS,11.7972,3.61283,-0.00271517,7.94328,0.0796707,-3.14643,0.0795506,0.00437297,0.154109,0.124856,0.00994734,2,0.251785,3.61283
2,1,Potentiostatic EIS,12.3845,3.61282,-0.00286316,6.30957,0.0803382,-2.84015,0.0802396,0.00398073,0.147933,0.124016,0.00996324,2,0.316979,3.61282
2,1,Potentiostatic EIS,13.1217,3.61283,-0.00280476,5.01186,0.0808554,-2.52845,0.0807767,0.00356698,0.131589,0.123301,0.00996953,2,0.399053,3.61283
2,1,Potentiostatic EIS,14.0485,3.61282,-0.00273913,3.98106,0.0812839,-2.24808,0.0812214,0.00318847,0.158594,0.122708,0.00997417,2,0.502378,3.61282
2,1,Potentiostatic EIS,15.2132,3.61283,-0.00271912,3.16227,0.0816698,-2.02885,0.0816186,0.00289133,0.146295,0.122221,0.00998176,2,0.632458,3.61283
2,1,Potentiostatic EIS,16.6122,3.61282,-0.00280479,2.51188,0.081916,-1.81581,0.0818748,0.00259563,0.133427,0.121761,0.00997419,2,0.796216,3.61282
2,1,Potentiostatic EIS,18.3716,3.61282,-0.00273446,1.99526,0.0820851,-1.63952,0.0820515,0.00234855,0.12111,0.121593,0.00998096,2,1.00238,3.61282
2,1,Potentiostatic EIS,20.5818,3.61282,-0.00281139,1.58489,0.0822837,-1.50694,0.0822552,0.0021639,0.151637,0.121313,0.00998208,2,1.26192,3.61282
2,1,Potentiostatic EIS,23.3605,3.61282,-0.00265009,1.25892,0.0825185,-1.43555,0.0824926,0.00206729,0.156623,0.121043,0.00998829,2,1.58866,3.61282
2,1,Potentiostatic EIS,26.8527,3.61281,-0.00274689,0.999998,0.0825866,-1.40431,0.0825618,0.00202398,0.139917,0.120884,0.00998345,2,2,3.61281
2,1,Potentiostatic EIS,31.2468,3.61282,-0.00247781,0.794327,0.0827339,-1.39673,0.0827093,0.00201664,0.115541,0.12074,0.00998926,2,2.51785,3.61282
2,1,Potentiostatic EIS,36.7736,3.61282,-0.00260896,0.630956,0.0827551,-1.46584,0.082728,0.00211695,0.140911,0.120647,0.00998412,2,3.16979,3.61282
2,1,Potentiostatic EIS,43.7299,3.61282,-0.00235308,0.501186,0.0824607,-1.53448,0.0824311,0.00220818,0.121077,0.121183,0.00999272,2,3.99054,3.61282
2,1,Potentiostatic EIS,50.7016,3.61281,-0.00231132,0.5,0.0821253,-1.54491,0.0820954,0.00221414,0.114797,0.12157,0.00998395,2,4,3.61281