Folder: feature-extraction-paper-2024/Data/P180/P180_04/EIS_04_P180_04_3

Note: README.md
# feature-extraction-paper-2024
Repository for code used and referenced in 2024 feature extraction paper

File: 2_EIS_04_P180_04_3 20230822 152436.csv
Step number,Repeats,Step name,Elapsed Time  (s),DC Working Electrode (V),DC Current (A),Frequency (Hz),|Z| (Ohms),Phase (deg),Z' (Ohms),-Z" (Ohms),THD (%),Amplitude (A),Amplitude (V),No of Cycles,Duration of Each Frequency (s),IR Compensated DC Working Electrode (V)
2,1,Potentiostatic EIS,0,3.51632,-0.0099935,1000000,2.15185,87.3628,0.0990083,-2.14957,0.861916,0.0046622,0.0100323,1430,0.00143,3.51632
2,1,Potentiostatic EIS,0.257863,3.51625,-0.0115628,794328,1.72954,86.9821,0.091058,-1.72714,1.15176,0.00578661,0.0100082,1445,0.00181915,3.51625
2,1,Potentiostatic EIS,0.520407,3.5162,-0.0122553,630957.375,1.37866,86.4241,0.0859881,-1.37597,0.921084,0.00723915,0.00998037,1355,0.00214753,3.5162
2,1,Potentiostatic EIS,0.797341,3.51614,-0.0133273,501187.25,1.10544,86.4819,0.0678342,-1.10336,0.958773,0.00907639,0.0100334,1385,0.00276344,3.51614
2,1,Potentiostatic EIS,1.08294,3.51606,-0.0149652,398107,0.88423,85.524,0.0690074,-0.881533,1.05252,0.0111515,0.00986034,1400,0.00351664,3.51606
2,1,Potentiostatic EIS,1.41558,3.51603,-0.0153029,316228,0.70499,85.177,0.0592745,-0.702494,1.27387,0.0140866,0.00993091,1370,0.00433232,3.51603
2,1,Potentiostatic EIS,1.78901,3.51595,-0.0164723,251189,0.567324,84.3564,0.0557911,-0.564574,1.22753,0.0176103,0.00999075,1340,0.00533464,3.51595
2,1,Potentiostatic EIS,2.26543,3.51586,-0.0179735,199526,0.452885,83.959,0.0476618,-0.45037,1.43061,0.0218766,0.00990761,1355,0.00679109,3.51586
2,1,Potentiostatic EIS,2.7416,3.51579,-0.0193785,158489,0.36431,82.8517,0.0453338,-0.361479,1.44974,0.0271758,0.00990058,1360,0.00858102,3.51579
2,1,Potentiostatic EIS,3.32158,3.51566,-0.0216291,125893,0.294161,81.8774,0.0415626,-0.29121,1.75911,0.0339549,0.0099882,1370,0.0108823,3.51566
2,1,Potentiostatic EIS,3.99335,3.5156,-0.0225186,100000,0.235954,80.7342,0.0379922,-0.232875,1.72817,0.042264,0.00997238,1370,0.0137,3.5156
2,1,Potentiostatic EIS,4.73222,3.51551,-0.0237564,79432.8,0.190546,79.2151,0.0356555,-0.187181,2.46991,0.0524118,0.00998689,1365,0.0171843,3.51551
2,1,Potentiostatic EIS,5.05964,3.51542,-0.0247052,63095.7,0.153691,77.5844,0.0330439,-0.150097,2.11704,0.0648209,0.00996241,1290,0.0204451,3.51542
2,1,Potentiostatic EIS,5.4359,3.51601,-0.0108112,50118.75,0.124502,75.6025,0.0309572,-0.120592,4.31116,0.0800311,0.00996413,1025,0.0204514,3.51601
2,1,Potentiostatic EIS,5.66003,3.51601,-0.0111473,39810.7,0.101749,73.1211,0.0295428,-0.0973655,5.09686,0.098663,0.0100387,815,0.0204719,3.51601
2,1,Potentiostatic EIS,5.88295,3.516,-0.011168,31622.8,0.0835363,70.1322,0.0283899,-0.0785642,5.70737,0.120726,0.0100848,645,0.0203967,3.516
2,1,Potentiostatic EIS,6.10406,3.51633,-0.00350797,25118.9,0.0689246,66.8683,0.0270767,-0.0633833,6.32453,0.14686,0.0101223,510,0.0203034,3.51633
2,1,Potentiostatic EIS,6.33288,3.51638,-0.00210094,19952.6,0.057129,62.8316,0.0260855,-0.0508259,6.72028,0.177149,0.0101203,405,0.0202981,3.51638
2,1,Potentiostatic EIS,6.56075,3.51642,-0.00149327,15848.9,0.0476397,58.4215,0.0249473,-0.0405854,6.94356,0.210654,0.0100357,320,0.0201906,3.51642
2,1,Potentiostatic EIS,6.78297,3.51646,-0.00062711,12589.2,0.0407111,53.2454,0.0243611,-0.032618,7.02878,0.245903,0.0100111,255,0.0202554,3.51646
2,1,Potentiostatic EIS,7.0871,3.51666,-0.000553202,9999.98,0.035513,47.7058,0.0238981,-0.026269,3.08917,0.281087,0.00998226,307,0.0307001,3.51666
2,1,Potentiostatic EIS,7.2999,3.51668,-1.59959e-05,7943.27,0.0315364,42.3981,0.0232889,-0.0212643,3.76212,0.280803,0.00885552,244,0.0307178,3.51668
2,1,Potentiostatic EIS,7.51219,3.51668,-0.000260669,6309.57,0.0276859,36.4516,0.0222694,-0.0164494,4.12487,0.363252,0.0100569,193,0.0305885,3.51668
2,1,Potentiostatic EIS,7.72509,3.51672,0.000214299,5011.87,0.0258144,28.7496,0.0226322,-0.0124163,4.10516,0.40467,0.0104463,153,0.0305276,3.51672
2,1,Potentiostatic EIS,7.93889,3.51675,0.000782228,3981.07,0.0247708,22.8285,0.0228305,-0.0096104,3.90782,0.414338,0.0102635,122,0.0306451,3.51675
2,1,Potentiostatic EIS,8.10834,3.51677,0.00150518,3162.27,0.0240782,17.7774,0.0229284,-0.00735152,3.73899,0.36183,0.00871219,97,0.0306742,3.51677
2,1,Potentiostatic EIS,8.27947,3.51679,0.00163341,2511.88,0.0236595,13.5603,0.023,-0.00554741,3.35943,0.443798,0.0105001,77,0.0306543,3.51679
2,1,Potentiostatic EIS,8.44661,3.51679,0.00158571,1995.26,0.0234319,9.8071,0.0230895,-0.0039912,2.99596,0.439359,0.010295,61,0.0305725,3.51679
2,1,Potentiostatic EIS,8.61518,3.5168,0.00182256,1584.89,0.0233957,6.62464,0.0232395,-0.00269903,2.79217,0.433431,0.0101404,48,0.030286,3.5168
2,1,Potentiostatic EIS,8.73994,3.5168,0.00189872,1258.92,0.0234395,4.03459,0.0233814,-0.00164918,2.66461,0.397716,0.00932227,38,0.0301845,3.5168
2,1,Potentiostatic EIS,8.86586,3.5168,0.00177983,999.999,0.0235885,1.77256,0.0235772,-0.000729643,2.31226,0.436135,0.0102878,30,0.03,3.5168
2,1,Potentiostatic EIS,8.98988,3.5168,0.00196381,794.328,0.0238123,-0.132548,0.0238123,5.50874e-05,2.22083,0.427321,0.0101755,24,0.0302142,3.5168
2,1,Potentiostatic EIS,9.11413,3.51682,0.00211311,630.956,0.0240813,-1.82117,0.0240691,0.000765306,2.14593,0.419043,0.0100911,19,0.030113,3.51682
2,1,Potentiostatic EIS,9.23859,3.51681,0.00261294,501.187,0.024399,-3.4481,0.0243548,0.00146746,2.04137,0.412277,0.0100591,15,0.029929,3.51681
2,1,Potentiostatic EIS,9.31858,3.51683,0.00250272,398.107,0.0247983,-4.86732,0.0247089,0.0021041,2.02723,0.351474,0.00871596,12,0.0301427,3.51683
2,1,Potentiostatic EIS,9.39839,3.51681,0.00268645,316.228,0.0252796,-6.15006,0.0251342,0.00270828,1.89137,0.365704,0.00924488,9,0.0284605,3.51681
2,1,Potentiostatic EIS,9.4793,3.51681,0.00247882,251.189,0.0258992,-7.45648,0.0256802,0.00336102,1.67467,0.370357,0.00959194,8,0.0318486,3.51681
2,1,Potentiostatic EIS,9.56878,3.51682,0.00275477,199.526,0.0266068,-8.56479,0.0263101,0.00396249,1.50228,0.367966,0.00979042,8,0.0400951,3.51682
2,1,Potentiostatic EIS,9.66884,3.51682,0.0025842,158.489,0.0274268,-9.46037,0.0270538,0.00450803,1.28346,0.360946,0.0098996,8,0.0504766,3.51682
2,1,Potentiostatic EIS,9.78179,3.51682,0.00260624,125.892,0.0283211,-10.2361,0.0278703,0.00503278,1.14455,0.351051,0.00994216,8,0.0635464,3.51682
2,1,Potentiostatic EIS,9.91164,3.51681,0.00251024,100,0.0293498,-10.7738,0.0288324,0.00548641,0.911704,0.339381,0.00996075,8,0.08,3.51681
2,1,Potentiostatic EIS,10.064,3.51682,0.00251137,79.4327,0.0304319,-11.0131,0.0298714,0.0058135,0.774116,0.327385,0.00996292,8,0.100714,3.51682
2,1,Potentiostatic EIS,10.2436,3.51681,0.0023135,63.0956,0.0315563,-11.0128,0.0309752,0.00602814,0.652494,0.315377,0.00995213,8,0.126792,3.51681
2,1,Potentiostatic EIS,10.4587,3.51682,0.00309025,50.1186,0.0326489,-10.9225,0.0320574,0.00618632,0.52577,0.299084,0.00976477,8,0.159621,3.51682
2,1,Potentiostatic EIS,10.7178,3.5168,0.00208566,39.8107,0.0337537,-10.5504,0.033183,0.00618032,0.425627,0.290117,0.00979253,8,0.200951,3.5168
2,1,Potentiostatic EIS,10.862,3.51679,0.00034712,31.6228,0.034745,-10.2365,0.0341919,0.00617457,0.714116,0.284849,0.00989718,2,0.0632456,3.51679
2,1,Potentiostatic EIS,11.0237,3.51681,0.00164244,25.1188,0.0358106,-9.60124,0.035309,0.00597285,0.760204,0.269717,0.0096586,2,0.0796217,3.51681
2,1,Potentiostatic EIS,11.2234,3.51682,0.00179742,19.9526,0.0367431,-8.99405,0.0362914,0.00574413,0.73479,0.265701,0.00976264,2,0.100238,3.51682
2,1,Potentiostatic EIS,11.4705,3.51682,0.00184117,15.8489,0.0376396,-8.38996,0.0372368,0.00549198,0.770679,0.260989,0.00982349,2,0.126192,3.51682
2,1,Potentiostatic EIS,11.7773,3.51683,0.00180272,12.5892,0.0384634,-7.69537,0.038117,0.00515048,0.541958,0.256565,0.00986834,2,0.158866,3.51683
2,1,Potentiostatic EIS,12.1588,3.51681,0.000769763,9.99998,0.0392088,-7.01815,0.038915,0.00479068,0.268439,0.252553,0.00990228,2,0.2,3.51681
2,1,Potentiostatic EIS,12.6346,3.51682,0.00110639,7.94328,0.0398503,-6.35512,0.0396054,0.00441105,0.231417,0.248793,0.00991447,2,0.251785,3.51682
2,1,Potentiostatic EIS,13.2279,3.51681,0.000894538,6.30957,0.0404154,-5.71317,0.0402146,0.00402329,0.211046,0.245657,0.0099283,2,0.316979,3.51681
2,1,Potentiostatic EIS,13.9711,3.51681,0.00107459,5.01186,0.0409085,-5.1089,0.040746,0.00364286,0.205711,0.242956,0.00993896,2,0.399053,3.51681
2,1,Potentiostatic EIS,14.8987,3.51681,0.000888989,3.98106,0.0413122,-4.57238,0.0411807,0.00329335,0.227998,0.240614,0.00994031,2,0.502378,3.51681
2,1,Potentiostatic EIS,16.0641,3.5168,0.000511382,3.16227,0.0416478,-4.12971,0.0415396,0.00299925,0.205304,0.238843,0.00994728,2,0.632458,3.5168
2,1,Potentiostatic EIS,17.528,3.51681,0.000829499,2.51188,0.0419502,-3.77926,0.041859,0.00276505,0.204867,0.237207,0.00995088,2,0.796216,3.51681
2,1,Potentiostatic EIS,19.3675,3.51682,0.000626751,1.99526,0.0421853,-3.47873,0.0421075,0.00255972,0.175825,0.235913,0.00995207,2,1.00238,3.51682
2,1,Potentiostatic EIS,21.6776,3.51681,7.16848e-05,1.58489,0.0424006,-3.28674,0.0423308,0.00243095,0.197306,0.234607,0.00994745,2,1.26192,3.51681
2,1,Potentiostatic EIS,24.5813,3.51681,0.000527323,1.25892,0.0426071,-3.15099,0.0425427,0.002342,0.202207,0.233698,0.00995721,2,1.58866,3.51681
2,1,Potentiostatic EIS,28.2331,3.51682,0.000347287,0.999998,0.0427853,-3.13317,0.0427213,0.00233851,0.192439,0.232681,0.00995533,2,2,3.51682
2,1,Potentiostatic EIS,32.828,3.51682,-0.000431654,0.794327,0.0429736,-3.19145,0.0429069,0.00239245,0.19237,0.231585,0.00995203,2,2.51785,3.51682
2,1,Potentiostatic EIS,38.6073,3.51682,0.000474641,0.630956,0.0431687,-3.33164,0.0430957,0.00250876,0.197918,0.230664,0.00995746,2,3.16979,3.51682
2,1,Potentiostatic EIS,45.8809,3.51681,-0.000283606,0.501186,0.04337,-3.56193,0.0432863,0.00269447,0.171215,0.229532,0.00995483,2,3.99054,3.51681
2,1,Potentiostatic EIS,53.1703,3.51681,-9.74714e-05,0.5,0.0433465,-3.56298,0.0432627,0.0026938,0.183914,0.229663,0.00995506,2,4,3.51681