Folder: feature-extraction-paper-2024/Data/P180/P180_04/EIS_06_P180_04_1

Note: README.md
# feature-extraction-paper-2024
Repository for code used and referenced in 2024 feature extraction paper

File: 2_EIS_06_P180_04_1 20230824 145203.csv
Step number,Repeats,Step name,Elapsed Time  (s),DC Working Electrode (V),DC Current (A),Frequency (Hz),|Z| (Ohms),Phase (deg),Z' (Ohms),-Z" (Ohms),THD (%),Amplitude (A),Amplitude (V),No of Cycles,Duration of Each Frequency (s),IR Compensated DC Working Electrode (V)
2,1,Potentiostatic EIS,0,3.60654,-0.0137,1000000,3.24671,88.3474,0.0936303,-3.24536,1.07017,0.00305172,0.00990799,1430,0.00143,3.60654
2,1,Potentiostatic EIS,0.229672,3.60649,-0.0146362,794328,2.60764,87.8657,0.0971135,-2.60583,1.18281,0.00380334,0.00991768,1445,0.00181915,3.60649
2,1,Potentiostatic EIS,0.474503,3.60646,-0.0149977,630957.375,2.08087,87.3413,0.0965248,-2.07863,1.18625,0.0047142,0.00980947,1355,0.00214753,3.60646
2,1,Potentiostatic EIS,0.747965,3.60642,-0.015808,501187.25,1.65798,87.3045,0.0779718,-1.65614,1.02115,0.00600505,0.00995623,1385,0.00276344,3.60642
2,1,Potentiostatic EIS,1.02971,3.60637,-0.0162467,398107,1.32384,86.5801,0.0789713,-1.32148,1.12914,0.00752657,0.00996403,1400,0.00351664,3.60637
2,1,Potentiostatic EIS,1.34064,3.60635,-0.0167779,316228,1.05495,86.2594,0.0688249,-1.0527,1.11812,0.00941278,0.00993008,1370,0.00433232,3.60635
2,1,Potentiostatic EIS,1.70582,3.60629,-0.0175512,251189,0.846231,85.4835,0.0666378,-0.843603,1.29641,0.0117674,0.009958,1340,0.00533464,3.60629
2,1,Potentiostatic EIS,2.11464,3.60625,-0.0182101,199526,0.674816,85.2273,0.0561463,-0.672476,1.46714,0.0147173,0.00993148,1355,0.00679109,3.60625
2,1,Potentiostatic EIS,2.57608,3.60619,-0.0187752,158489,0.543147,84.416,0.0528508,-0.54057,1.4317,0.0183638,0.00997427,1360,0.00858102,3.60619
2,1,Potentiostatic EIS,3.33114,3.60611,-0.0200265,125893,0.436829,83.7495,0.04756,-0.434233,1.60778,0.0228365,0.00997566,1370,0.0108823,3.60611
2,1,Potentiostatic EIS,3.94932,3.60603,-0.0208261,100000,0.348808,82.8817,0.0432235,-0.34612,1.55631,0.0285157,0.00994658,1370,0.0137,3.60603
2,1,Potentiostatic EIS,4.61717,3.60598,-0.0215495,79432.8,0.28123,81.7525,0.040342,-0.278321,2.01819,0.0355125,0.00998723,1365,0.0171843,3.60598
2,1,Potentiostatic EIS,4.87379,3.60585,-0.0243239,63095.7,0.225587,80.5914,0.0368776,-0.222552,1.74892,0.0442327,0.00997832,1290,0.0204451,3.60585
2,1,Potentiostatic EIS,5.13068,3.60584,-0.0246099,50118.75,0.182304,78.6096,0.0360039,-0.178714,1.88715,0.0543747,0.00991389,1025,0.0204514,3.60584
2,1,Potentiostatic EIS,5.47899,3.60581,-0.0239204,39810.7,0.147137,77.1694,0.0326745,-0.143463,1.94371,0.0664812,0.00978162,815,0.0204719,3.60581
2,1,Potentiostatic EIS,5.83032,3.60618,-0.0151454,31622.8,0.120137,74.82,0.031458,-0.115945,4.42261,0.0814205,0.00978205,645,0.0203967,3.60618
2,1,Potentiostatic EIS,6.05893,3.60666,-0.005609,25118.9,0.097665,72.2344,0.0297999,-0.0930076,5.77641,0.102963,0.0100559,510,0.0203034,3.60666
2,1,Potentiostatic EIS,6.28728,3.60668,-0.00501351,19952.6,0.079769,69.258,0.028251,-0.0745988,6.52628,0.126008,0.0100515,405,0.0202981,3.60668
2,1,Potentiostatic EIS,6.50092,3.60671,-0.00440194,15848.9,0.0652974,65.6432,0.0269298,-0.0594856,7.06044,0.149046,0.00973154,320,0.0201906,3.60671
2,1,Potentiostatic EIS,6.71783,3.60669,-0.00449401,12589.2,0.0544798,61.1426,0.0262936,-0.0477147,7.22334,0.181011,0.00986115,255,0.0202554,3.60669
2,1,Potentiostatic EIS,7.02491,3.60668,-0.00367836,9999.98,0.0462249,56.2828,0.0256592,-0.0384493,3.44652,0.216296,0.00999828,307,0.0307001,3.60668
2,1,Potentiostatic EIS,7.23522,3.60669,-0.00389935,7943.27,0.0397946,51.2153,0.0249271,-0.0310201,4.19944,0.267313,0.0106376,244,0.0307178,3.60669
2,1,Potentiostatic EIS,7.44848,3.6067,-0.00354831,6309.57,0.033978,45.4681,0.023829,-0.0242216,4.80125,0.309588,0.0105192,193,0.0305885,3.6067
2,1,Potentiostatic EIS,7.66142,3.60674,-0.00269404,5011.87,0.0304035,37.6116,0.0240846,-0.0185554,4.91737,0.340249,0.0103447,153,0.0305276,3.60674
2,1,Potentiostatic EIS,7.87292,3.60674,-0.00262931,3981.07,0.028237,30.912,0.0242262,-0.014506,4.70733,0.361074,0.0101957,122,0.0306451,3.60674
2,1,Potentiostatic EIS,8.04097,3.60674,-0.00231346,3162.27,0.0267688,24.7908,0.0243019,-0.0112243,4.45665,0.352989,0.0094491,97,0.0306742,3.60674
2,1,Potentiostatic EIS,8.21005,3.60675,-0.0023879,2511.88,0.0258478,19.3203,0.0243922,-0.00855174,3.87823,0.405123,0.0104715,77,0.0306543,3.60675
2,1,Potentiostatic EIS,8.37874,3.60679,-0.00181624,1995.26,0.025322,14.5761,0.024507,-0.00637268,3.40513,0.405025,0.010256,61,0.0305725,3.60679
2,1,Potentiostatic EIS,8.5452,3.60679,-0.00158759,1584.89,0.0250823,10.4943,0.0246627,-0.00456841,3.10656,0.40278,0.0101026,48,0.030286,3.60679
2,1,Potentiostatic EIS,8.66764,3.60679,-0.00166336,1258.92,0.0250266,7.13191,0.024833,-0.00310716,2.78136,0.385306,0.00964291,38,0.0301845,3.60679
2,1,Potentiostatic EIS,8.78939,3.60679,-0.00168337,999.999,0.0251192,4.3144,0.025048,-0.0018897,2.45652,0.409417,0.0102842,30,0.03,3.60679
2,1,Potentiostatic EIS,8.91377,3.60679,-0.00128132,794.328,0.0253107,1.93348,0.0252962,-0.000853959,2.32092,0.401227,0.0101553,24,0.0302142,3.60679
2,1,Potentiostatic EIS,9.03873,3.6068,-0.00137485,630.956,0.0255803,-0.11,0.0255803,4.91107e-05,2.1683,0.394134,0.0100821,19,0.030113,3.6068
2,1,Potentiostatic EIS,9.16199,3.6068,-0.000801068,501.187,0.0259052,-1.88971,0.0258911,0.000854243,2.07074,0.387885,0.0100482,15,0.029929,3.6068
2,1,Potentiostatic EIS,9.24346,3.6068,-0.00105227,398.107,0.0263129,-3.48363,0.0262642,0.00159886,2.0386,0.332492,0.00874882,12,0.0301427,3.6068
2,1,Potentiostatic EIS,9.32324,3.60682,-0.000588532,316.228,0.0267721,-4.91482,0.0266736,0.00229369,1.8475,0.345667,0.0092542,9,0.0284605,3.60682
2,1,Potentiostatic EIS,9.40452,3.60681,-0.000815914,251.189,0.0273359,-6.22871,0.0271745,0.00296588,1.68963,0.350711,0.00958701,8,0.0318486,3.60681
2,1,Potentiostatic EIS,9.49382,3.60681,-0.000552153,199.526,0.0280008,-7.36925,0.0277696,0.00359148,1.49604,0.349412,0.00978383,8,0.0400951,3.60681
2,1,Potentiostatic EIS,9.59474,3.60681,-0.000711143,158.489,0.0287402,-8.39617,0.0284322,0.00419655,1.29257,0.344418,0.00989865,8,0.0504766,3.60681
2,1,Potentiostatic EIS,9.70828,3.6068,-0.000583205,125.892,0.0295937,-9.28292,0.0292061,0.00477375,1.10775,0.336186,0.00994898,8,0.0635464,3.6068
2,1,Potentiostatic EIS,9.83729,3.60681,-0.000891789,100,0.0305715,-10.0354,0.0301037,0.00532729,0.914703,0.326286,0.00997505,8,0.08,3.60681
2,1,Potentiostatic EIS,9.99182,3.60681,-0.000836751,79.4327,0.0316384,-10.4995,0.0311087,0.00576538,0.752395,0.315417,0.00997929,8,0.100714,3.60681
2,1,Potentiostatic EIS,10.1716,3.60681,-0.00116826,63.0956,0.032763,-10.7009,0.0321932,0.00608352,0.623394,0.304387,0.00997264,8,0.126792,3.60681
2,1,Potentiostatic EIS,10.3858,3.60683,-0.000364729,50.1186,0.0338971,-10.8016,0.0332965,0.00635261,0.522464,0.288569,0.00978163,8,0.159621,3.60683
2,1,Potentiostatic EIS,10.6451,3.60681,-0.00125345,39.8107,0.0350348,-10.632,0.0344334,0.0064639,0.406697,0.279995,0.00980959,8,0.200951,3.60681
2,1,Potentiostatic EIS,10.7892,3.60681,-0.00285989,31.6228,0.0361079,-10.4422,0.0355098,0.00654434,0.362502,0.274679,0.00991824,2,0.0632456,3.60681
2,1,Potentiostatic EIS,10.9512,3.60681,-0.00164516,25.1188,0.037267,-9.9931,0.0367016,0.00646692,0.287575,0.259325,0.00966408,2,0.0796217,3.60681
2,1,Potentiostatic EIS,11.151,3.60681,-0.00161031,19.9526,0.0383364,-9.55378,0.0378047,0.00636282,0.256148,0.254988,0.00977536,2,0.100238,3.60681
2,1,Potentiostatic EIS,11.398,3.60681,-0.00152729,15.8489,0.0393609,-9.10332,0.0388651,0.0062275,0.236086,0.249953,0.00983832,2,0.126192,3.60681
2,1,Potentiostatic EIS,11.7046,3.60682,-0.00137578,12.5892,0.0403525,-8.50482,0.0399088,0.00596784,0.193644,0.244822,0.00987918,2,0.158866,3.60682
2,1,Potentiostatic EIS,12.0861,3.60681,-0.00166152,9.99998,0.0413062,-7.87726,0.0409164,0.00566107,0.185782,0.239898,0.0099093,2,0.2,3.60681
2,1,Potentiostatic EIS,12.5611,3.60682,-0.00160175,7.94328,0.0421795,-7.1539,0.0418512,0.00525283,0.166003,0.235419,0.00992989,2,0.251785,3.60682
2,1,Potentiostatic EIS,13.1544,3.60681,-0.00174199,6.30957,0.0429181,-6.45973,0.0426456,0.00482849,0.179651,0.231551,0.00993775,2,0.316979,3.60681
2,1,Potentiostatic EIS,13.8945,3.60682,-0.00148143,5.01186,0.0435326,-5.71201,0.0433164,0.00433273,0.194271,0.228586,0.00995093,2,0.399053,3.60682
2,1,Potentiostatic EIS,14.8218,3.60682,-0.00165112,3.98106,0.0440474,-5.0652,0.0438754,0.00388892,0.186753,0.225951,0.00995255,2,0.502378,3.60682
2,1,Potentiostatic EIS,15.9868,3.60682,-0.00185959,3.16227,0.0444642,-4.46687,0.0443291,0.00346299,0.172441,0.223909,0.00995595,2,0.632458,3.60682
2,1,Potentiostatic EIS,17.4493,3.60682,-0.0016928,2.51188,0.0448028,-3.97956,0.0446948,0.00310934,0.162899,0.222513,0.00996921,2,0.796216,3.60682
2,1,Potentiostatic EIS,19.2886,3.60682,-0.00169829,1.99526,0.0450735,-3.56914,0.044986,0.00280596,0.168119,0.221006,0.00996153,2,1.00238,3.60682
2,1,Potentiostatic EIS,21.5984,3.60682,-0.00200274,1.58489,0.045303,-3.26603,0.0452294,0.00258101,0.146314,0.219878,0.00996112,2,1.26192,3.60682
2,1,Potentiostatic EIS,24.5031,3.60682,-0.0018937,1.25892,0.0454925,-3.05229,0.0454279,0.00242235,0.155484,0.219009,0.00996323,2,1.58866,3.60682
2,1,Potentiostatic EIS,28.1552,3.60682,-0.00161758,0.999998,0.0456685,-2.95289,0.0456079,0.00235261,0.16112,0.218257,0.00996745,2,2,3.60682
2,1,Potentiostatic EIS,32.7505,3.60682,-0.0021111,0.794327,0.0458444,-2.90961,0.0457853,0.00232708,0.159342,0.217365,0.00996495,2,2.51785,3.60682
2,1,Potentiostatic EIS,38.5288,3.60682,-0.00177729,0.630956,0.0460071,-2.98728,0.0459446,0.00239763,0.141526,0.216588,0.00996456,2,3.16979,3.60682
2,1,Potentiostatic EIS,45.8035,3.6068,-0.00163376,0.501186,0.046174,-3.13246,0.0461051,0.00252316,0.122919,0.215868,0.00996748,2,3.99054,3.6068
2,1,Potentiostatic EIS,53.094,3.60681,-0.00164276,0.5,0.0461612,-3.1247,0.0460925,0.00251621,0.140127,0.215931,0.00996762,2,4,3.60681