Folder: feature-extraction-paper-2024/Data/P180/P180_04/EIS_06_P180_04_4

Note: README.md
# feature-extraction-paper-2024
Repository for code used and referenced in 2024 feature extraction paper

File: 2_EIS_06_P180_04_4 20230824 150231.csv
Step number,Repeats,Step name,Elapsed Time  (s),DC Working Electrode (V),DC Current (A),Frequency (Hz),|Z| (Ohms),Phase (deg),Z' (Ohms),-Z" (Ohms),THD (%),Amplitude (A),Amplitude (V),No of Cycles,Duration of Each Frequency (s),IR Compensated DC Working Electrode (V)
2,1,Potentiostatic EIS,0,3.58064,-0.0115585,1000000,2.11653,87.2751,0.100623,-2.11413,0.993772,0.00473695,0.0100258,1430,0.00143,3.58064
2,1,Potentiostatic EIS,0.255935,3.58057,-0.0132351,794328,1.70028,86.6914,0.0981307,-1.69745,1.06253,0.0058911,0.0100166,1445,0.00181915,3.58057
2,1,Potentiostatic EIS,0.516373,3.58051,-0.0141906,630957.375,1.35743,86.1915,0.0901634,-1.35444,1.07008,0.00734905,0.00997583,1355,0.00214753,3.58051
2,1,Potentiostatic EIS,0.794352,3.58045,-0.0154377,501187.25,1.09076,86.2739,0.0708855,-1.08846,1.17583,0.00915325,0.00998402,1385,0.00276344,3.58045
2,1,Potentiostatic EIS,1.0864,3.58038,-0.0166234,398107,0.873146,85.476,0.0688708,-0.870426,1.21207,0.0112829,0.00985171,1400,0.00351664,3.58038
2,1,Potentiostatic EIS,1.41599,3.58034,-0.0175958,316228,0.69647,85.0102,0.0605778,-0.693831,1.42219,0.0142796,0.00994536,1370,0.00433232,3.58034
2,1,Potentiostatic EIS,1.77889,3.58026,-0.0191879,251189,0.561423,84.1315,0.057403,-0.55848,1.43001,0.0177681,0.00997546,1340,0.00533464,3.58026
2,1,Potentiostatic EIS,2.36046,3.58018,-0.0201647,199526,0.448682,83.7887,0.0485456,-0.446048,1.58027,0.0221597,0.00994269,1355,0.00679109,3.58018
2,1,Potentiostatic EIS,2.82308,3.58009,-0.0221083,158489,0.360312,82.7092,0.0457256,-0.357399,1.75427,0.0274534,0.00989166,1360,0.00858102,3.58009
2,1,Potentiostatic EIS,3.40066,3.57996,-0.0244927,125893,0.291392,81.7551,0.0417867,-0.28838,1.90486,0.0342315,0.00997479,1370,0.0108823,3.57996
2,1,Potentiostatic EIS,4.07749,3.57987,-0.0262645,100000,0.233777,80.62,0.0381013,-0.230651,1.921,0.0426685,0.00997493,1370,0.0137,3.57987
2,1,Potentiostatic EIS,4.82312,3.57975,-0.0279655,79432.8,0.188637,79.084,0.0357222,-0.185224,2.7378,0.0529054,0.00997993,1365,0.0171843,3.57975
2,1,Potentiostatic EIS,5.14052,3.57962,-0.0300368,63095.7,0.152306,77.518,0.0329184,-0.148706,2.12244,0.0653331,0.00995073,1290,0.0204451,3.57962
2,1,Potentiostatic EIS,5.5202,3.58032,-0.0129711,50118.75,0.12399,75.5932,0.0308494,-0.120091,4.66699,0.0803875,0.00996728,1025,0.0204514,3.58032
2,1,Potentiostatic EIS,5.74517,3.58032,-0.0132935,39810.7,0.100881,73.2525,0.0290693,-0.0966021,5.55266,0.0995636,0.0100438,815,0.0204719,3.58032
2,1,Potentiostatic EIS,5.97005,3.58031,-0.013456,31622.8,0.0830109,70.2635,0.0280323,-0.0781344,6.10441,0.121463,0.0100829,645,0.0203967,3.58031
2,1,Potentiostatic EIS,6.19152,3.58064,-0.0050537,25118.9,0.0685155,67.1318,0.026626,-0.0631302,6.75306,0.148002,0.0101402,510,0.0203034,3.58064
2,1,Potentiostatic EIS,6.41309,3.58068,-0.00409707,19952.6,0.0566501,63.3348,0.0254232,-0.050625,7.13732,0.17873,0.0101252,405,0.0202981,3.58068
2,1,Potentiostatic EIS,6.63748,3.58073,-0.0030893,15848.9,0.0471779,58.8094,0.0244329,-0.0403583,7.31685,0.213069,0.0100522,320,0.0201906,3.58073
2,1,Potentiostatic EIS,6.85911,3.58078,-0.00240502,12589.2,0.0402603,53.7792,0.0237898,-0.0324799,7.32318,0.248926,0.0100218,255,0.0202554,3.58078
2,1,Potentiostatic EIS,7.16449,3.58069,-0.00203921,9999.98,0.0350337,48.4366,0.0232431,-0.026213,3.21602,0.28481,0.00997796,307,0.0307001,3.58069
2,1,Potentiostatic EIS,7.37656,3.58075,-0.0010187,7943.27,0.0309835,43.1595,0.022601,-0.0211937,3.94245,0.28451,0.00881514,244,0.0307178,3.58075
2,1,Potentiostatic EIS,7.588,3.58074,-0.00138761,6309.57,0.0271091,37.3376,0.0215538,-0.016442,4.32766,0.3683,0.00998431,193,0.0305885,3.58074
2,1,Potentiostatic EIS,7.79971,3.58074,-0.00128659,5011.87,0.025167,29.4903,0.0219063,-0.0123891,4.2913,0.416487,0.0104817,153,0.0305276,3.58074
2,1,Potentiostatic EIS,8.01221,3.58077,-0.000374509,3981.07,0.0241036,23.4266,0.0221167,-0.00958294,4.09287,0.42659,0.0102823,122,0.0306451,3.58077
2,1,Potentiostatic EIS,8.1812,3.58081,0.000587298,3162.27,0.023367,18.2658,0.0221896,-0.00732383,3.93257,0.367277,0.00858216,97,0.0306742,3.58081
2,1,Potentiostatic EIS,8.34906,3.58082,0.000680828,2511.88,0.0229845,13.8643,0.0223148,-0.00550762,3.45251,0.458769,0.0105446,77,0.0306543,3.58082
2,1,Potentiostatic EIS,8.5167,3.58084,0.000733949,1995.26,0.0227735,10.0465,0.0224243,-0.00397277,3.088,0.452782,0.0103114,61,0.0305725,3.58084
2,1,Potentiostatic EIS,8.68481,3.58084,0.00102391,1584.89,0.0227326,6.91559,0.0225672,-0.00273716,2.833,0.446106,0.0101411,48,0.030286,3.58084
2,1,Potentiostatic EIS,8.81037,3.58084,0.000946128,1258.92,0.022791,4.24854,0.0227284,-0.00168843,2.6479,0.404585,0.00922088,38,0.0301845,3.58084
2,1,Potentiostatic EIS,8.93424,3.58085,0.00117238,999.999,0.0229291,2.05128,0.0229145,-0.000820725,2.40312,0.45015,0.0103216,30,0.03,3.58085
2,1,Potentiostatic EIS,9.0582,3.58086,0.00138667,794.328,0.0231309,0.144763,0.0231308,-5.84421e-05,2.28535,0.440181,0.0101818,24,0.0302142,3.58086
2,1,Potentiostatic EIS,9.18134,3.58087,0.00143938,630.956,0.0233941,-1.52452,0.0233858,0.000622393,2.21462,0.431289,0.0100896,19,0.030113,3.58087
2,1,Potentiostatic EIS,9.30555,3.58085,0.00204524,501.187,0.0236973,-2.98797,0.0236651,0.00123525,2.13405,0.423426,0.0100341,15,0.029929,3.58085
2,1,Potentiostatic EIS,9.38466,3.58086,0.00187703,398.107,0.0240751,-4.37522,0.0240049,0.00183663,2.10107,0.359604,0.0086575,12,0.0301427,3.58086
2,1,Potentiostatic EIS,9.46436,3.58086,0.00204518,316.228,0.0244787,-5.62194,0.024361,0.00239803,1.9202,0.375636,0.00919509,9,0.0284605,3.58086
2,1,Potentiostatic EIS,9.54573,3.58087,0.00197852,251.189,0.0250113,-6.81052,0.0248348,0.002966,1.74776,0.381805,0.00954945,8,0.0318486,3.58087
2,1,Potentiostatic EIS,9.63537,3.58087,0.00209758,199.526,0.0256172,-7.883,0.0253752,0.00351342,1.56829,0.381092,0.00976251,8,0.0400951,3.58087
2,1,Potentiostatic EIS,9.73629,3.58087,0.00180482,158.489,0.0263075,-8.82943,0.0259957,0.00403803,1.34321,0.375708,0.00988392,8,0.0504766,3.58087
2,1,Potentiostatic EIS,9.85053,3.58087,0.00190986,125.892,0.027098,-9.65773,0.026714,0.00454603,1.18339,0.366825,0.00994023,8,0.0635464,3.58087
2,1,Potentiostatic EIS,9.98206,3.58086,0.00168512,100,0.0280319,-10.3364,0.027577,0.00502967,0.945799,0.355532,0.00996625,8,0.08,3.58086
2,1,Potentiostatic EIS,10.1338,3.58087,0.00183989,79.4327,0.0290264,-10.6889,0.0285228,0.00538369,0.808682,0.343503,0.00997067,8,0.100714,3.58087
2,1,Potentiostatic EIS,10.3138,3.58087,0.00166032,63.0956,0.0300714,-10.8601,0.0295328,0.0056658,0.671077,0.331347,0.00996405,8,0.126792,3.58087
2,1,Potentiostatic EIS,10.5282,3.58088,0.00242455,50.1186,0.0311203,-10.8912,0.0305597,0.00587999,0.562837,0.31397,0.00977083,8,0.159621,3.58088
2,1,Potentiostatic EIS,10.7876,3.58086,0.00131791,39.8107,0.0321644,-10.6481,0.0316105,0.00594321,0.454325,0.304609,0.00979757,8,0.200951,3.58086
2,1,Potentiostatic EIS,10.9307,3.58086,-0.000185124,31.6228,0.033137,-10.4017,0.0325925,0.00598286,0.357475,0.298857,0.00990338,2,0.0632456,3.58086
2,1,Potentiostatic EIS,11.0924,3.58086,0.00089742,25.1188,0.0341901,-9.88981,0.0336821,0.00587229,0.308245,0.282529,0.00965959,2,0.0796217,3.58086
2,1,Potentiostatic EIS,11.2916,3.58085,0.000862242,19.9526,0.0351472,-9.41655,0.0346736,0.00575047,0.279963,0.277893,0.0097671,2,0.100238,3.58085
2,1,Potentiostatic EIS,11.5391,3.58086,0.00128447,15.8489,0.0360806,-8.82919,0.0356531,0.00553799,0.252276,0.272397,0.00982822,2,0.126192,3.58086
2,1,Potentiostatic EIS,11.8458,3.58086,0.00101856,12.5892,0.036947,-8.22089,0.0365674,0.00528305,0.226296,0.267176,0.00987131,2,0.158866,3.58086
2,1,Potentiostatic EIS,12.2272,3.58085,0.00066325,9.99998,0.0377661,-7.53379,0.0374401,0.00495154,0.230359,0.262198,0.00990217,2,0.2,3.58085
2,1,Potentiostatic EIS,12.7022,3.58087,0.000849687,7.94328,0.0384764,-6.7907,0.0382065,0.00454956,0.219591,0.257872,0.00992196,2,0.251785,3.58087
2,1,Potentiostatic EIS,13.296,3.58086,0.000448884,6.30957,0.0391058,-6.09257,0.0388849,0.00415049,0.214153,0.253958,0.00993119,2,0.316979,3.58086
2,1,Potentiostatic EIS,14.0362,3.58086,0.000641703,5.01186,0.039624,-5.38753,0.039449,0.00372036,0.196567,0.251073,0.00994853,2,0.399053,3.58086
2,1,Potentiostatic EIS,14.9638,3.58088,0.000696891,3.98106,0.0400496,-4.78002,0.0399103,0.00333734,0.199489,0.248491,0.00995195,2,0.502378,3.58088
2,1,Potentiostatic EIS,16.1287,3.58086,6.90885e-05,3.16227,0.0403911,-4.20301,0.0402825,0.00296029,0.179612,0.246398,0.0099523,2,0.632458,3.58086
2,1,Potentiostatic EIS,17.5918,3.58086,0.000176535,2.51188,0.0406499,-3.76477,0.0405622,0.00266908,0.168535,0.244788,0.00995062,2,0.796216,3.58086
2,1,Potentiostatic EIS,19.4302,3.58086,0.000139028,1.99526,0.0408845,-3.42324,0.0408115,0.00244126,0.168353,0.243507,0.00995567,2,1.00238,3.58086
2,1,Potentiostatic EIS,21.7398,3.58087,-0.000328127,1.58489,0.0410859,-3.17661,0.0410227,0.00227673,0.189064,0.242482,0.00996257,2,1.26192,3.58087
2,1,Potentiostatic EIS,24.645,3.58086,-0.000328589,1.25892,0.0412473,-2.99221,0.0411911,0.00215312,0.173803,0.241481,0.00996043,2,1.58866,3.58086
2,1,Potentiostatic EIS,28.2965,3.58088,-0.000295185,0.999998,0.0413375,-2.92633,0.0412836,0.00211036,0.167364,0.240966,0.00996092,2,2,3.58088
2,1,Potentiostatic EIS,32.8909,3.58087,-0.00106453,0.794327,0.0414867,-2.91909,0.0414329,0.00211274,0.183947,0.239871,0.00995146,2,2.51785,3.58087
2,1,Potentiostatic EIS,38.6698,3.58087,-0.000466812,0.630956,0.0417197,-3.04369,0.0416609,0.00221521,0.216603,0.238676,0.00995752,2,3.16979,3.58087
2,1,Potentiostatic EIS,45.9444,3.58086,-0.000476242,0.501186,0.0419462,-3.18922,0.0418812,0.00233362,0.120077,0.23734,0.00995553,2,3.99054,3.58086
2,1,Potentiostatic EIS,53.2336,3.58087,-0.000428961,0.5,0.041897,-3.2002,0.0418317,0.0023389,0.123986,0.237525,0.00995158,2,4,3.58087