Folder: feature-extraction-paper-2024/Data/P180/P180_04/EIS_02_P180_04_4

Note: README.md
# feature-extraction-paper-2024
Repository for code used and referenced in 2024 feature extraction paper

File: 2_EIS_02_P180_04_4 20230821 145814.csv
Step number,Repeats,Step name,Elapsed Time  (s),DC Working Electrode (V),DC Current (A),Frequency (Hz),|Z| (Ohms),Phase (deg),Z' (Ohms),-Z" (Ohms),THD (%),Amplitude (A),Amplitude (V),No of Cycles,Duration of Each Frequency (s),IR Compensated DC Working Electrode (V)
2,1,Potentiostatic EIS,0,3.69518,-0.0149864,1000000,1.75302,86.3496,0.111612,-1.74946,0.933908,0.00574507,0.0100711,1430,0.00143,3.69518
2,1,Potentiostatic EIS,0.248417,3.69508,-0.016725,794328,1.40999,85.8019,0.103218,-1.4062,1.29813,0.00709049,0.00999755,1445,0.00181915,3.69508
2,1,Potentiostatic EIS,0.508233,3.69501,-0.0179937,630957.375,1.1291,85.2609,0.0932846,-1.12524,1.30407,0.00882275,0.00996178,1355,0.00214753,3.69501
2,1,Potentiostatic EIS,0.779952,3.69493,-0.0193369,501187.25,0.905348,85.3381,0.0735832,-0.902352,1.37533,0.010815,0.00979172,1385,0.00276344,3.69493
2,1,Potentiostatic EIS,1.08024,3.69488,-0.0202541,398107,0.726561,84.3186,0.0719277,-0.722992,1.54838,0.0137345,0.00997895,1400,0.00351664,3.69488
2,1,Potentiostatic EIS,1.40989,3.69479,-0.0213934,316228,0.581492,83.8098,0.0627015,-0.578101,1.49265,0.0170924,0.00993907,1370,0.00433232,3.69479
2,1,Potentiostatic EIS,1.77142,3.6947,-0.0229477,251189,0.468463,82.8126,0.0586119,-0.464782,1.74452,0.0213075,0.00998179,1340,0.00533464,3.6947
2,1,Potentiostatic EIS,2.21968,3.69459,-0.0245133,199526,0.37622,82.4215,0.0496176,-0.372934,1.80974,0.0263687,0.00992043,1355,0.00679109,3.69459
2,1,Potentiostatic EIS,2.72271,3.6945,-0.0260759,158489,0.303519,81.1348,0.0467752,-0.299893,2.02795,0.0327448,0.00993869,1360,0.00858102,3.6945
2,1,Potentiostatic EIS,3.30373,3.69439,-0.0277894,125893,0.245275,79.7766,0.043533,-0.241381,1.99558,0.0406845,0.00997892,1370,0.0108823,3.69439
2,1,Potentiostatic EIS,3.9884,3.69423,-0.0306366,100000,0.197395,78.4628,0.0394797,-0.193406,2.22205,0.0505615,0.00998059,1370,0.0137,3.69423
2,1,Potentiostatic EIS,4.97995,3.69416,-0.0306137,79432.8,0.160029,76.6212,0.0370288,-0.155687,2.86019,0.062416,0.00998842,1365,0.0171843,3.69416
2,1,Potentiostatic EIS,5.34973,3.6948,-0.0170875,63095.7,0.13,74.7383,0.0342197,-0.125415,4.40028,0.076555,0.00995212,1290,0.0204451,3.6948
2,1,Potentiostatic EIS,5.56808,3.69479,-0.0172691,50118.75,0.106257,72.181,0.0325157,-0.101159,4.99824,0.0948169,0.010075,1025,0.0204514,3.69479
2,1,Potentiostatic EIS,5.7869,3.69479,-0.0169756,39810.7,0.0873522,69.302,0.030874,-0.0817141,5.59075,0.115206,0.0100635,815,0.0204719,3.69479
2,1,Potentiostatic EIS,6.00606,3.69477,-0.0173935,31622.8,0.0725791,65.7094,0.0298565,-0.0661537,6.04584,0.139391,0.0101167,645,0.0203967,3.69477
2,1,Potentiostatic EIS,6.22743,3.69512,-0.0101755,25118.9,0.060623,61.9729,0.0284861,-0.0535135,6.44046,0.167744,0.0101688,510,0.0203034,3.69512
2,1,Potentiostatic EIS,6.44952,3.69519,-0.00878151,19952.6,0.0509581,57.6219,0.0272883,-0.0430357,6.70535,0.199193,0.0101503,405,0.0202981,3.69519
2,1,Potentiostatic EIS,6.67461,3.69523,-0.00797447,15848.9,0.0432378,52.6615,0.0262247,-0.0343769,6.92028,0.232531,0.0100543,320,0.0201906,3.69523
2,1,Potentiostatic EIS,6.93062,3.69526,-0.00698078,12589.2,0.0378546,47.1241,0.0257567,-0.0277409,6.58141,0.263343,0.0099687,255,0.0202554,3.69526
2,1,Potentiostatic EIS,7.23711,3.69518,-0.00702305,9999.98,0.03371,41.5824,0.0252151,-0.0223732,2.92222,0.295828,0.00997235,307,0.0307001,3.69518
2,1,Potentiostatic EIS,7.45066,3.69523,-0.00612279,7943.27,0.0305362,36.4569,0.0245604,-0.0181451,3.54167,0.289691,0.00884605,244,0.0307178,3.69523
2,1,Potentiostatic EIS,7.66324,3.69523,-0.00627607,6309.57,0.027351,30.6664,0.023526,-0.0139501,3.86512,0.374781,0.0102507,193,0.0305885,3.69523
2,1,Potentiostatic EIS,7.87635,3.69525,-0.00588825,5011.87,0.0260682,23.5274,0.0239011,-0.0104061,3.8468,0.400662,0.0104445,153,0.0305276,3.69525
2,1,Potentiostatic EIS,8.08655,3.69527,-0.00521892,3981.07,0.0253967,18.3145,0.0241103,-0.0079805,3.67382,0.402419,0.0102201,122,0.0306451,3.69527
2,1,Potentiostatic EIS,8.25518,3.6953,-0.00459079,3162.27,0.0249696,13.9982,0.0242281,-0.00603993,3.47754,0.372491,0.00930094,97,0.0306742,3.6953
2,1,Potentiostatic EIS,8.42183,3.69529,-0.00486371,2511.88,0.0247328,10.3065,0.0243337,-0.00442503,3.1514,0.423432,0.0104726,77,0.0306543,3.69529
2,1,Potentiostatic EIS,8.58954,3.69533,-0.00414084,1995.26,0.0246554,7.23107,0.0244593,-0.0031034,2.90478,0.41591,0.0102544,61,0.0305725,3.69533
2,1,Potentiostatic EIS,8.71411,3.69533,-0.00403322,1584.89,0.0246854,4.60714,0.0246056,-0.00198281,2.70703,0.346472,0.0085528,48,0.030286,3.69533
2,1,Potentiostatic EIS,8.8375,3.69533,-0.00414251,1258.92,0.0248053,2.45116,0.0247826,-0.00106087,2.58383,0.401695,0.00996417,38,0.0301845,3.69533
2,1,Potentiostatic EIS,8.96127,3.69535,-0.00403666,999.999,0.0249854,0.614299,0.0249839,-0.000267877,2.4216,0.410673,0.0102608,30,0.03,3.69535
2,1,Potentiostatic EIS,9.08588,3.69534,-0.00382553,794.328,0.0252275,-0.965563,0.0252239,0.00042512,2.34176,0.402532,0.0101549,24,0.0302142,3.69534
2,1,Potentiostatic EIS,9.20896,3.69536,-0.00355229,630.956,0.0255006,-2.35819,0.025479,0.00104926,2.27673,0.394611,0.0100628,19,0.030113,3.69536
2,1,Potentiostatic EIS,9.33298,3.69538,-0.002672,501.187,0.0258153,-3.69833,0.0257615,0.00166517,2.17358,0.38839,0.0100264,15,0.029929,3.69538
2,1,Potentiostatic EIS,9.41201,3.69538,-0.00302557,398.107,0.0262106,-4.98153,0.0261116,0.00227598,2.1098,0.337349,0.00884211,12,0.0301427,3.69538
2,1,Potentiostatic EIS,9.49111,3.69538,-0.00289577,316.228,0.0266521,-6.1694,0.0264977,0.00286425,1.92441,0.349902,0.00932562,9,0.0284605,3.69538
2,1,Potentiostatic EIS,9.5718,3.69537,-0.00313435,251.189,0.0272086,-7.32281,0.0269867,0.003468,1.74742,0.354221,0.00963787,8,0.0318486,3.69537
2,1,Potentiostatic EIS,9.65997,3.69537,-0.00302968,199.526,0.0278562,-8.40795,0.0275568,0.00407314,1.5572,0.352526,0.00982003,8,0.0400951,3.69537
2,1,Potentiostatic EIS,9.75958,3.69537,-0.00287415,158.489,0.0286065,-9.45348,0.028218,0.00469852,1.30195,0.346914,0.00992399,8,0.0504766,3.69537
2,1,Potentiostatic EIS,9.87186,3.69536,-0.0031761,125.892,0.0294942,-10.4205,0.0290078,0.00533464,1.16642,0.338236,0.009976,8,0.0635464,3.69536
2,1,Potentiostatic EIS,10.0012,3.69536,-0.00321759,100,0.0305282,-11.2398,0.0299427,0.00595042,0.918341,0.327356,0.00999357,8,0.08,3.69536
2,1,Potentiostatic EIS,10.1522,3.69537,-0.00317322,79.4327,0.0316995,-11.82,0.0310274,0.00649329,0.751678,0.315445,0.00999947,8,0.100714,3.69537
2,1,Potentiostatic EIS,10.3302,3.69537,-0.00320589,63.0956,0.0329571,-12.1391,0.0322202,0.00693039,0.636494,0.303125,0.00999013,8,0.126792,3.69537
2,1,Potentiostatic EIS,10.5431,3.69538,-0.00268856,50.1186,0.0342691,-12.2817,0.0334848,0.00728969,0.520767,0.287228,0.00984304,8,0.159621,3.69538
2,1,Potentiostatic EIS,10.7997,3.69536,-0.00352849,39.8107,0.0356015,-12.1022,0.0348102,0.00746407,0.414024,0.276779,0.00985373,8,0.200951,3.69536
2,1,Potentiostatic EIS,10.9415,3.69536,-0.00491175,31.6228,0.0368766,-11.8251,0.036094,0.00755692,0.328991,0.269398,0.0099346,2,0.0632456,3.69536
2,1,Potentiostatic EIS,11.1043,3.69536,-0.00380649,25.1188,0.0381895,-11.3246,0.037446,0.00749913,0.2744,0.253334,0.0096745,2,0.0796217,3.69536
2,1,Potentiostatic EIS,11.3044,3.69537,-0.00372347,19.9526,0.0394269,-10.8118,0.038727,0.00739584,0.250802,0.248053,0.00977989,2,0.100238,3.69537
2,1,Potentiostatic EIS,11.5516,3.69538,-0.00349152,15.8489,0.0406255,-10.2471,0.0399775,0.00722702,0.214422,0.242378,0.00984667,2,0.126192,3.69538
2,1,Potentiostatic EIS,11.8581,3.69538,-0.00362808,12.5892,0.0417644,-9.5974,0.0411799,0.00696314,0.222211,0.236741,0.00988731,2,0.158866,3.69538
2,1,Potentiostatic EIS,12.2389,3.69536,-0.00383395,9.99998,0.0428484,-8.91828,0.0423304,0.00664259,0.195575,0.231201,0.00990658,2,0.2,3.69536
2,1,Potentiostatic EIS,12.7137,3.69538,-0.00375973,7.94328,0.0438588,-8.16129,0.0434146,0.00622621,0.203338,0.226524,0.00993507,2,0.251785,3.69538
2,1,Potentiostatic EIS,13.3068,3.69536,-0.00396241,6.30957,0.0447692,-7.36635,0.0443997,0.00574,0.186328,0.222118,0.00994408,2,0.316979,3.69536
2,1,Potentiostatic EIS,14.0467,3.69537,-0.00380099,5.01186,0.0455506,-6.57385,0.0452511,0.0052148,0.19982,0.218509,0.00995317,2,0.399053,3.69537
2,1,Potentiostatic EIS,14.9735,3.69537,-0.00366325,3.98106,0.0461724,-5.80231,0.0459358,0.00466787,0.195619,0.215734,0.00996097,2,0.502378,3.69537
2,1,Potentiostatic EIS,16.1382,3.69536,-0.00398711,3.16227,0.0466913,-5.10639,0.046506,0.00415578,0.175761,0.213322,0.00996029,2,0.632458,3.69536
2,1,Potentiostatic EIS,17.6006,3.69537,-0.00371625,2.51188,0.0471011,-4.4928,0.0469564,0.00368961,0.157704,0.211481,0.00996102,2,0.796216,3.69537
2,1,Potentiostatic EIS,19.4396,3.69536,-0.00356395,1.99526,0.047403,-3.98106,0.0472886,0.00329104,0.205464,0.210099,0.0099593,2,1.00238,3.69536
2,1,Potentiostatic EIS,21.7493,3.69537,-0.00368311,1.58489,0.0477081,-3.52888,0.0476176,0.00293651,0.179267,0.208942,0.00996821,2,1.26192,3.69537
2,1,Potentiostatic EIS,24.6533,3.69537,-0.00342654,1.25892,0.0479209,-3.23875,0.0478444,0.00270738,0.186261,0.208116,0.00997311,2,1.58866,3.69537
2,1,Potentiostatic EIS,28.3048,3.69538,-0.00301579,0.999998,0.0480984,-3.03626,0.0480308,0.00254767,0.167255,0.207282,0.00996992,2,2,3.69538
2,1,Potentiostatic EIS,32.8997,3.69537,-0.00340618,0.794327,0.0482643,-2.89175,0.0482028,0.00243489,0.149424,0.206405,0.00996195,2,2.51785,3.69537
2,1,Potentiostatic EIS,38.678,3.69537,-0.00304083,0.630956,0.0483979,-2.91162,0.0483354,0.0024584,0.148597,0.20603,0.00997144,2,3.16979,3.69537
2,1,Potentiostatic EIS,45.9512,3.69537,-0.00254364,0.501186,0.0485615,-2.94822,0.0484972,0.00249769,0.127549,0.205187,0.00996419,2,3.99054,3.69537
2,1,Potentiostatic EIS,53.2402,3.69537,-0.00247616,0.5,0.0485345,-2.96943,0.0484694,0.00251424,0.133056,0.205363,0.00996719,2,4,3.69537