Folder: feature-extraction-paper-2024/Data/P180/P180_04/EIS_02_P180_04_5

Note: README.md
# feature-extraction-paper-2024
Repository for code used and referenced in 2024 feature extraction paper

File: 2_EIS_02_P180_04_5 20230821 150114.csv
Step number,Repeats,Step name,Elapsed Time  (s),DC Working Electrode (V),DC Current (A),Frequency (Hz),|Z| (Ohms),Phase (deg),Z' (Ohms),-Z" (Ohms),THD (%),Amplitude (A),Amplitude (V),No of Cycles,Duration of Each Frequency (s),IR Compensated DC Working Electrode (V)
2,1,Potentiostatic EIS,0,3.71457,-0.0130215,1000000,2.90637,87.3613,0.133805,-2.90329,1.39147,0.00341004,0.00991078,1430,0.00143,3.71457
2,1,Potentiostatic EIS,0.226777,3.71454,-0.0141046,794328,2.32801,86.9961,0.121997,-2.32481,1.3824,0.00421122,0.00980362,1445,0.00181915,3.71454
2,1,Potentiostatic EIS,0.48372,3.71448,-0.0147845,630957.375,1.85776,86.3673,0.117708,-1.85402,1.45503,0.00537267,0.0099811,1355,0.00214753,3.71448
2,1,Potentiostatic EIS,0.759093,3.71443,-0.015589,501187.25,1.48746,86.1757,0.0992093,-1.48415,1.53967,0.00670225,0.00996938,1385,0.00276344,3.71443
2,1,Potentiostatic EIS,1.04659,3.71438,-0.0162473,398107,1.19029,85.5927,0.0914683,-1.18677,1.42931,0.00837421,0.00996771,1400,0.00351664,3.71438
2,1,Potentiostatic EIS,1.34513,3.71433,-0.0167613,316228,0.950054,84.9732,0.0832457,-0.9464,1.65597,0.0104735,0.00995037,1370,0.00433232,3.71433
2,1,Potentiostatic EIS,1.69738,3.7143,-0.0176208,251189,0.76517,84.1086,0.0785395,-0.761129,1.32808,0.0127744,0.00977439,1340,0.00533464,3.7143
2,1,Potentiostatic EIS,2.10513,3.71424,-0.0183374,199526,0.611456,83.7776,0.0662741,-0.607853,1.93173,0.0162146,0.00991459,1355,0.00679109,3.71424
2,1,Potentiostatic EIS,2.56467,3.71418,-0.0192722,158489,0.493231,82.7065,0.0626168,-0.48924,1.70335,0.0202326,0.00997937,1360,0.00858102,3.71418
2,1,Potentiostatic EIS,3.23266,3.71409,-0.020423,125893,0.397859,81.8278,0.0565555,-0.393819,1.5253,0.0251063,0.00998879,1370,0.0108823,3.71409
2,1,Potentiostatic EIS,3.85139,3.71402,-0.0215727,100000,0.319525,80.6602,0.0518553,-0.315289,1.86661,0.0309328,0.00988347,1370,0.0137,3.71402
2,1,Potentiostatic EIS,4.51784,3.71393,-0.022599,79432.8,0.258338,79.2818,0.0480455,-0.25383,2.40087,0.0387278,0.0100049,1365,0.0171843,3.71393
2,1,Potentiostatic EIS,4.76596,3.71386,-0.024004,63095.7,0.208848,77.9159,0.0437216,-0.20422,1.99141,0.0475311,0.00992683,1290,0.0204451,3.71386
2,1,Potentiostatic EIS,5.0172,3.71386,-0.0243237,50118.75,0.169538,76.0307,0.0409269,-0.164524,1.82293,0.057587,0.00976289,1025,0.0204514,3.71386
2,1,Potentiostatic EIS,5.37056,3.7138,-0.0242959,39810.7,0.137842,73.6421,0.0388212,-0.132262,2.20077,0.0701227,0.00966604,815,0.0204719,3.7138
2,1,Potentiostatic EIS,5.74123,3.71434,-0.0137175,31622.8,0.113542,70.8459,0.0372543,-0.107257,5.27342,0.0881598,0.0100099,645,0.0203967,3.71434
2,1,Potentiostatic EIS,5.97304,3.71467,-0.00725841,25118.9,0.0934523,67.8559,0.0352256,-0.0865592,5.62624,0.107655,0.0100607,510,0.0203034,3.71467
2,1,Potentiostatic EIS,6.19531,3.71471,-0.00657721,19952.6,0.0769076,64.3258,0.0333205,-0.0693147,6.64822,0.13055,0.0100403,405,0.0202981,3.71471
2,1,Potentiostatic EIS,6.40521,3.71472,-0.00613044,15848.9,0.0641305,60.3348,0.0317402,-0.0557251,6.72055,0.151672,0.00972756,320,0.0201906,3.71472
2,1,Potentiostatic EIS,6.61583,3.71478,-0.00538833,12589.2,0.0543987,55.4456,0.0308543,-0.0448022,7.10031,0.181399,0.00986822,255,0.0202554,3.71478
2,1,Potentiostatic EIS,6.92222,3.71474,-0.00502316,9999.98,0.0471058,50.1324,0.0301955,-0.036155,3.26172,0.21219,0.00999536,307,0.0307001,3.71474
2,1,Potentiostatic EIS,7.13317,3.71476,-0.00509904,7943.27,0.0414709,44.8472,0.0294024,-0.029246,3.9369,0.256635,0.0106429,244,0.0307178,3.71476
2,1,Potentiostatic EIS,7.34433,3.71479,-0.00434316,6309.57,0.0362704,39.0009,0.0281871,-0.0228262,4.4817,0.288243,0.0104547,193,0.0305885,3.71479
2,1,Potentiostatic EIS,7.55532,3.7148,-0.00419534,5011.87,0.0334173,31.6891,0.0284352,-0.0175544,4.54019,0.307468,0.0102748,153,0.0305276,3.7148
2,1,Potentiostatic EIS,7.72337,3.71482,-0.00356324,3981.07,0.0316132,25.7443,0.0284753,-0.0137314,4.44378,0.278683,0.00881008,122,0.0306451,3.71482
2,1,Potentiostatic EIS,7.89082,3.71482,-0.00378725,3162.27,0.0304312,20.5616,0.0284926,-0.0106879,4.02035,0.347828,0.0105848,97,0.0306742,3.71482
2,1,Potentiostatic EIS,8.05835,3.71482,-0.00365512,2511.88,0.0296927,15.9966,0.028543,-0.00818272,3.72068,0.349379,0.010374,77,0.0306543,3.71482
2,1,Potentiostatic EIS,8.22587,3.71482,-0.00377702,1995.26,0.0292332,12.112,0.0285824,-0.00613381,3.36788,0.348418,0.0101854,61,0.0305725,3.71482
2,1,Potentiostatic EIS,8.34861,3.71485,-0.00327298,1584.89,0.0290134,8.80045,0.0286719,-0.00443887,3.02761,0.322862,0.00936735,48,0.030286,3.71485
2,1,Potentiostatic EIS,8.47183,3.71485,-0.00300469,1258.92,0.0289847,6.0266,0.0288245,-0.00304311,2.72123,0.358314,0.0103856,38,0.0301845,3.71485
2,1,Potentiostatic EIS,8.59581,3.71484,-0.0032929,999.999,0.0290503,3.70961,0.0289894,-0.00187955,2.53078,0.35172,0.0102176,30,0.03,3.71484
2,1,Potentiostatic EIS,8.71919,3.71488,-0.00234865,794.328,0.0291992,1.73189,0.0291859,-0.000882476,2.37505,0.346458,0.0101163,24,0.0302142,3.71488
2,1,Potentiostatic EIS,8.84277,3.71485,-0.00315503,630.956,0.0294831,-0.0118194,0.0294831,6.08199e-06,2.2355,0.341386,0.0100651,19,0.030113,3.71485
2,1,Potentiostatic EIS,8.96612,3.71485,-0.00277222,501.187,0.0297219,-1.52635,0.0297113,0.000791694,2.12794,0.337537,0.0100322,15,0.029929,3.71485
2,1,Potentiostatic EIS,9.04703,3.71487,-0.00245551,398.107,0.0300631,-2.94018,0.0300235,0.00154203,2.04215,0.296556,0.0089154,12,0.0301427,3.71487
2,1,Potentiostatic EIS,9.12628,3.71486,-0.00243657,316.228,0.0304422,-4.27431,0.0303575,0.00226891,1.85443,0.306988,0.00934539,9,0.0284605,3.71486
2,1,Potentiostatic EIS,9.20787,3.71486,-0.0025122,251.189,0.0310289,-5.52467,0.0308847,0.00298728,1.64196,0.310475,0.00963369,8,0.0318486,3.71486
2,1,Potentiostatic EIS,9.29762,3.71486,-0.00213336,199.526,0.0316316,-6.62469,0.0314204,0.00364918,1.45225,0.309847,0.00980094,8,0.0400951,3.71486
2,1,Potentiostatic EIS,9.3978,3.71487,-0.00223727,158.489,0.0323444,-7.6294,0.0320581,0.00429421,1.22249,0.306064,0.00989947,8,0.0504766,3.71487
2,1,Potentiostatic EIS,9.51128,3.71486,-0.00205487,125.892,0.0332509,-8.57389,0.0328793,0.00495721,1.06379,0.299367,0.00995422,8,0.0635464,3.71486
2,1,Potentiostatic EIS,9.64114,3.71486,-0.00215924,100,0.0342463,-9.39997,0.0337864,0.00559329,0.834552,0.291375,0.00997852,8,0.08,3.71486
2,1,Potentiostatic EIS,9.79489,3.71486,-0.00229148,79.4327,0.0353204,-9.98514,0.0347854,0.00612431,0.694278,0.282616,0.00998212,8,0.100714,3.71486
2,1,Potentiostatic EIS,9.97428,3.71486,-0.00273985,63.0956,0.0365227,-10.3171,0.0359321,0.00654106,0.573667,0.273181,0.0099773,8,0.126792,3.71486
2,1,Potentiostatic EIS,10.1892,3.71487,-0.00208462,50.1186,0.0377872,-10.5155,0.0371526,0.0068962,0.477207,0.26034,0.00983752,8,0.159621,3.71487
2,1,Potentiostatic EIS,10.4481,3.71485,-0.00278323,39.8107,0.0390859,-10.4009,0.0384436,0.00705634,0.377583,0.252091,0.00985321,8,0.200951,3.71485
2,1,Potentiostatic EIS,10.5911,3.71485,-0.00395254,31.6228,0.0403264,-10.2322,0.039685,0.00716352,0.329258,0.246261,0.00993092,2,0.0632456,3.71485
2,1,Potentiostatic EIS,10.7539,3.71487,-0.00279017,25.1188,0.0416044,-9.82858,0.0409938,0.00710191,0.247119,0.23286,0.00968793,2,0.0796217,3.71487
2,1,Potentiostatic EIS,10.9541,3.71486,-0.00330998,19.9526,0.042719,-9.46333,0.0421376,0.00702369,0.228151,0.228821,0.00977512,2,0.100238,3.71486
2,1,Potentiostatic EIS,11.2012,3.71486,-0.00314677,15.8489,0.043913,-9.01273,0.0433709,0.00687915,0.223402,0.224223,0.00984628,2,0.126192,3.71486
2,1,Potentiostatic EIS,11.5074,3.71488,-0.00295156,12.5892,0.0449418,-8.522,0.0444456,0.00665989,0.198044,0.220093,0.00989143,2,0.158866,3.71488
2,1,Potentiostatic EIS,11.8883,3.71486,-0.00315334,9.99998,0.0460427,-7.96507,0.0455985,0.0063801,0.167171,0.215455,0.00992012,2,0.2,3.71486
2,1,Potentiostatic EIS,12.3633,3.71486,-0.0032502,7.94328,0.046999,-7.32285,0.0466156,0.0059905,0.202617,0.211386,0.00993497,2,0.251785,3.71486
2,1,Potentiostatic EIS,12.9546,3.71487,-0.00311765,6.30957,0.0479363,-6.66028,0.0476128,0.00555976,0.196484,0.207699,0.00995632,2,0.316979,3.71487
2,1,Potentiostatic EIS,13.6944,3.71487,-0.00306675,5.01186,0.0487059,-5.94117,0.0484443,0.00504141,0.184635,0.204293,0.00995027,2,0.399053,3.71487
2,1,Potentiostatic EIS,14.6213,3.71486,-0.00321053,3.98106,0.0493701,-5.2864,0.0491601,0.00454867,0.165794,0.201794,0.00996259,2,0.502378,3.71486
2,1,Potentiostatic EIS,15.7862,3.71486,-0.00325097,3.16227,0.0498341,-4.63902,0.0496708,0.00403047,0.165379,0.199962,0.00996489,2,0.632458,3.71486
2,1,Potentiostatic EIS,17.249,3.71487,-0.00303859,2.51188,0.0502444,-4.08487,0.0501167,0.00357911,0.164982,0.198372,0.00996709,2,0.796216,3.71487
2,1,Potentiostatic EIS,19.0877,3.71487,-0.0032031,1.99526,0.0505611,-3.62153,0.0504602,0.00319372,0.19647,0.197229,0.00997213,2,1.00238,3.71487
2,1,Potentiostatic EIS,21.3978,3.71486,-0.00307533,1.58489,0.050824,-3.23415,0.0507431,0.00286732,0.172228,0.196164,0.00996981,2,1.26192,3.71486
2,1,Potentiostatic EIS,24.3021,3.71487,-0.00274001,1.25892,0.0510508,-2.96282,0.0509826,0.00263871,0.165079,0.195271,0.00996872,2,1.58866,3.71487
2,1,Potentiostatic EIS,27.9541,3.71487,-0.00292958,0.999998,0.0512063,-2.77685,0.0511462,0.00248075,0.168768,0.194795,0.00997476,2,2,3.71487
2,1,Potentiostatic EIS,32.5487,3.71486,-0.00300127,0.794327,0.0513832,-2.66308,0.0513277,0.00238741,0.163266,0.194122,0.00997458,2,2.51785,3.71486
2,1,Potentiostatic EIS,38.3281,3.71487,-0.00235364,0.630956,0.0514818,-2.62837,0.0514276,0.00236083,0.143801,0.193638,0.00996884,2,3.16979,3.71487
2,1,Potentiostatic EIS,45.602,3.71488,-0.00251479,0.501186,0.0517179,-2.69617,0.0516607,0.00243279,0.116647,0.192809,0.00997166,2,3.99054,3.71488
2,1,Potentiostatic EIS,52.8919,3.71488,-0.00218782,0.5,0.0517322,-2.69471,0.051675,0.00243215,0.14878,0.192712,0.0099694,2,4,3.71488