Folder: feature-extraction-paper-2024/Data/P180/P180_04/EIS_08_P180_04_5

Note: README.md
# feature-extraction-paper-2024
Repository for code used and referenced in 2024 feature extraction paper

File: 2_EIS_08_P180_04_5 20230828 115319.csv
Step number,Repeats,Step name,Elapsed Time  (s),DC Working Electrode (V),DC Current (A),Frequency (Hz),|Z| (Ohms),Phase (deg),Z' (Ohms),-Z" (Ohms),THD (%),Amplitude (A),Amplitude (V),No of Cycles,Duration of Each Frequency (s),IR Compensated DC Working Electrode (V)
2,1,Potentiostatic EIS,0,3.62841,-0.0138721,1000000,3.13829,87.5028,0.136739,-3.13531,1.07112,0.00316306,0.00992672,1430,0.00143,3.62841
2,1,Potentiostatic EIS,0.235115,3.62833,-0.0149732,794328,2.51062,86.9357,0.134208,-2.50703,1.3181,0.00396377,0.00995155,1445,0.00181915,3.62833
2,1,Potentiostatic EIS,0.47456,3.62832,-0.0154573,630957.375,1.9975,86.4621,0.123264,-1.99369,1.07077,0.00487246,0.00973235,1355,0.00214753,3.62832
2,1,Potentiostatic EIS,0.74943,3.62827,-0.0159543,501187.25,1.59896,86.4778,0.0982314,-1.59594,1.08081,0.00623988,0.00997726,1385,0.00276344,3.62827
2,1,Potentiostatic EIS,1.03487,3.62822,-0.0168354,398107,1.28241,85.5514,0.0994706,-1.27854,1.25508,0.00777666,0.00997293,1400,0.00351664,3.62822
2,1,Potentiostatic EIS,1.33712,3.62818,-0.0171673,316228,1.02205,85.0373,0.0884138,-1.01821,1.2279,0.00971038,0.00992451,1370,0.00433232,3.62818
2,1,Potentiostatic EIS,1.7045,3.62816,-0.0177053,251189,0.823078,84.412,0.0801466,-0.819167,1.28603,0.0120382,0.00990839,1340,0.00533464,3.62816
2,1,Potentiostatic EIS,2.1161,3.62811,-0.018188,199526,0.658411,83.8574,0.0704527,-0.654631,1.32189,0.0150889,0.00993469,1355,0.00679109,3.62811
2,1,Potentiostatic EIS,2.57546,3.62803,-0.0189798,158489,0.529888,82.7965,0.0664446,-0.525706,1.38007,0.0187904,0.00995686,1360,0.00858102,3.62803
2,1,Potentiostatic EIS,3.19392,3.62794,-0.0205349,125893,0.427291,81.8542,0.0605439,-0.42298,1.50676,0.023326,0.00996703,1370,0.0108823,3.62794
2,1,Potentiostatic EIS,3.82336,3.62793,-0.0205988,100000,0.342843,80.7613,0.0550429,-0.338395,1.68101,0.0290514,0.00996009,1370,0.0137,3.62793
2,1,Potentiostatic EIS,4.49281,3.62784,-0.0218152,79432.8,0.277349,79.2435,0.0517631,-0.272476,2.15591,0.0360955,0.0100111,1365,0.0171843,3.62784
2,1,Potentiostatic EIS,4.73542,3.62777,-0.0228908,63095.7,0.223787,77.8926,0.046938,-0.218809,1.84591,0.0444949,0.00995746,1290,0.0204451,3.62777
2,1,Potentiostatic EIS,4.99225,3.62772,-0.0236078,50118.75,0.181828,75.9998,0.0439888,-0.176426,2.06464,0.0543424,0.00988198,1025,0.0204514,3.62772
2,1,Potentiostatic EIS,5.28843,3.62771,-0.02316,39810.7,0.148275,73.4995,0.0421136,-0.142168,1.94737,0.0660904,0.00979961,815,0.0204719,3.62771
2,1,Potentiostatic EIS,5.63203,3.62808,-0.0160096,31622.8,0.12186,70.7887,0.0400984,-0.115074,4.21805,0.0804979,0.00980995,645,0.0203967,3.62808
2,1,Potentiostatic EIS,5.86645,3.62849,-0.00718475,25118.9,0.100139,67.4696,0.0383707,-0.0924961,5.46717,0.100318,0.0100457,510,0.0203034,3.62849
2,1,Potentiostatic EIS,6.08223,3.62851,-0.00665467,19952.6,0.0828426,63.9573,0.0363713,-0.0744313,5.92368,0.117679,0.00974912,405,0.0202981,3.62851
2,1,Potentiostatic EIS,6.29464,3.6286,-0.00592671,15848.9,0.0689497,59.7716,0.0347126,-0.0595743,6.37751,0.142114,0.00979885,320,0.0201906,3.6286
2,1,Potentiostatic EIS,6.51613,3.62856,-0.00528013,12589.2,0.0587078,54.9239,0.0337373,-0.0480459,6.43682,0.170142,0.00998871,255,0.0202554,3.62856
2,1,Potentiostatic EIS,6.82853,3.62853,-0.00541159,9999.98,0.0509898,49.6047,0.0330444,-0.0388334,3.17114,0.196171,0.0100027,307,0.0307001,3.62853
2,1,Potentiostatic EIS,7.04044,3.62855,-0.00488705,7943.27,0.0449609,44.3137,0.0321707,-0.0314091,3.85278,0.234416,0.0105396,244,0.0307178,3.62855
2,1,Potentiostatic EIS,7.25107,3.62857,-0.00453298,6309.57,0.039493,38.4822,0.0309151,-0.0245753,4.37459,0.263131,0.0103918,193,0.0305885,3.62857
2,1,Potentiostatic EIS,7.46486,3.62859,-0.00408388,5011.87,0.0364546,31.4759,0.0310907,-0.0190344,4.41944,0.280282,0.0102176,153,0.0305276,3.62859
2,1,Potentiostatic EIS,7.63121,3.62861,-0.00362588,3981.07,0.0345465,25.6176,0.0311505,-0.0149366,4.2829,0.271752,0.00938806,122,0.0306451,3.62861
2,1,Potentiostatic EIS,7.79815,3.62862,-0.00367495,3162.27,0.0332672,20.5731,0.0311456,-0.0116901,3.90081,0.316301,0.0105225,97,0.0306742,3.62862
2,1,Potentiostatic EIS,7.96641,3.62861,-0.00358485,2511.88,0.0324333,16.1444,0.0311543,-0.0090184,3.51295,0.317641,0.0103021,77,0.0306543,3.62861
2,1,Potentiostatic EIS,8.1369,3.62863,-0.00328092,1995.26,0.0319182,12.3523,0.0311793,-0.00682801,3.14744,0.317534,0.0101351,61,0.0305725,3.62863
2,1,Potentiostatic EIS,8.26146,3.62863,-0.00348086,1584.89,0.0316807,9.16495,0.0312762,-0.00504601,2.9002,0.310073,0.00982333,48,0.030286,3.62863
2,1,Potentiostatic EIS,8.38537,3.62865,-0.00301157,1258.92,0.0315289,6.49846,0.0313263,-0.00356833,2.70119,0.327946,0.0103398,38,0.0301845,3.62865
2,1,Potentiostatic EIS,8.50933,3.62865,-0.00317223,999.999,0.0315837,4.27678,0.0314957,-0.00235534,2.47672,0.323051,0.0102031,30,0.03,3.62865
2,1,Potentiostatic EIS,8.63434,3.62868,-0.00237106,794.328,0.0317074,2.43012,0.0316789,-0.00134442,2.31617,0.318602,0.010102,24,0.0302142,3.62868
2,1,Potentiostatic EIS,8.75844,3.62866,-0.00296537,630.956,0.0319071,0.754352,0.0319043,-0.000420074,2.15598,0.315409,0.0100638,19,0.030113,3.62866
2,1,Potentiostatic EIS,8.88172,3.62865,-0.00263714,501.187,0.0321361,-0.655037,0.032134,0.00036739,2.06088,0.311836,0.0100212,15,0.029929,3.62865
2,1,Potentiostatic EIS,8.96091,3.62866,-0.00268555,398.107,0.0324573,-1.95566,0.0324384,0.00110764,1.97016,0.275254,0.00893399,12,0.0301427,3.62866
2,1,Potentiostatic EIS,9.04085,3.62866,-0.00255655,316.228,0.0328402,-3.08364,0.0327927,0.0017666,1.74806,0.284506,0.00934326,9,0.0284605,3.62866
2,1,Potentiostatic EIS,9.12268,3.62866,-0.00239913,251.189,0.0333106,-4.19156,0.0332215,0.00243472,1.56235,0.288223,0.00960091,8,0.0318486,3.62866
2,1,Potentiostatic EIS,9.21122,3.62866,-0.00250116,199.526,0.0338966,-5.14547,0.03376,0.00304,1.32546,0.288184,0.00976846,8,0.0400951,3.62866
2,1,Potentiostatic EIS,9.31119,3.62867,-0.00224233,158.489,0.0345736,-5.98687,0.0343851,0.00360605,1.12744,0.285213,0.00986084,8,0.0504766,3.62867
2,1,Potentiostatic EIS,9.42252,3.62867,-0.00232651,125.892,0.0353311,-6.67438,0.0350916,0.00410641,0.964084,0.280546,0.00991199,8,0.0635464,3.62867
2,1,Potentiostatic EIS,9.55208,3.62867,-0.00222867,100,0.0361708,-7.30523,0.0358772,0.0045993,0.798754,0.274794,0.00993952,8,0.08,3.62867
2,1,Potentiostatic EIS,9.70367,3.62867,-0.00217028,79.4327,0.0371124,-7.65628,0.0367816,0.00494449,0.64514,0.26811,0.00995022,8,0.100714,3.62867
2,1,Potentiostatic EIS,9.88384,3.62865,-0.00255401,63.0956,0.0381224,-7.87761,0.0377626,0.00522496,0.542784,0.261088,0.0099533,8,0.126792,3.62865
2,1,Potentiostatic EIS,10.0997,3.62866,-0.00198282,50.1186,0.0390967,-7.96082,0.03872,0.00541474,0.463087,0.250851,0.00980746,8,0.159621,3.62866
2,1,Potentiostatic EIS,10.3578,3.62865,-0.0027035,39.8107,0.0400716,-7.85732,0.0396954,0.00547805,0.374169,0.245249,0.0098275,8,0.200951,3.62865
2,1,Potentiostatic EIS,10.5016,3.62867,-0.00341816,31.6228,0.0409621,-7.7874,0.0405843,0.00555027,0.672108,0.242098,0.00991689,2,0.0632456,3.62867
2,1,Potentiostatic EIS,10.6641,3.62867,-0.00265841,25.1188,0.0419317,-7.41858,0.0415808,0.00541411,0.730945,0.230618,0.00967018,2,0.0796217,3.62867
2,1,Potentiostatic EIS,10.8638,3.62865,-0.0029809,19.9526,0.0428106,-7.14763,0.0424779,0.00532677,0.705115,0.228259,0.00977183,2,0.100238,3.62865
2,1,Potentiostatic EIS,11.1108,3.62865,-0.00295411,15.8489,0.043699,-6.78041,0.0433933,0.00515929,0.697825,0.225222,0.00984194,2,0.126192,3.62865
2,1,Potentiostatic EIS,11.4174,3.62865,-0.0028484,12.5892,0.0445045,-6.29332,0.0442363,0.00487851,0.490968,0.222037,0.00988161,2,0.158866,3.62865
2,1,Potentiostatic EIS,11.7987,3.62866,-0.0026762,9.99998,0.0452751,-5.81557,0.0450421,0.00458758,0.209344,0.219007,0.00991559,2,0.2,3.62866
2,1,Potentiostatic EIS,12.2738,3.62866,-0.00293558,7.94328,0.0459731,-5.28481,0.0457777,0.00423443,0.193714,0.216121,0.00993575,2,0.251785,3.62866
2,1,Potentiostatic EIS,12.8671,3.62867,-0.00283541,6.30957,0.0465504,-4.76399,0.0463896,0.00386608,0.194972,0.213546,0.00994067,2,0.316979,3.62867
2,1,Potentiostatic EIS,13.6071,3.62866,-0.00278572,5.01186,0.0469748,-4.21952,0.0468475,0.00345631,0.175615,0.211913,0.00995455,2,0.399053,3.62866
2,1,Potentiostatic EIS,14.5343,3.62865,-0.00278361,3.98106,0.0473718,-3.73557,0.0472712,0.00308636,0.17401,0.210058,0.0099508,2,0.502378,3.62865
2,1,Potentiostatic EIS,15.6985,3.62865,-0.00298216,3.16227,0.0476662,-3.32051,0.0475862,0.00276089,0.174519,0.208907,0.00995777,2,0.632458,3.62865
2,1,Potentiostatic EIS,17.1614,3.62866,-0.00280023,2.51188,0.0478785,-2.97691,0.0478138,0.00248649,0.162633,0.208085,0.00996281,2,0.796216,3.62866
2,1,Potentiostatic EIS,19,3.62866,-0.00255384,1.99526,0.048146,-2.67788,0.0480934,0.00224942,0.174286,0.207018,0.00996708,2,1.00238,3.62866
2,1,Potentiostatic EIS,21.3102,3.62866,-0.00274787,1.58489,0.048365,-2.48662,0.0483194,0.00209836,0.157989,0.206056,0.00996586,2,1.26192,3.62866
2,1,Potentiostatic EIS,24.2154,3.62866,-0.00256534,1.25892,0.0487412,-2.38462,0.048699,0.00202799,0.233545,0.204531,0.00996906,2,1.58866,3.62866
2,1,Potentiostatic EIS,27.8673,3.62866,-0.00215358,0.999998,0.0489023,-2.27899,0.0488636,0.00194462,0.179438,0.203714,0.00996205,2,2,3.62866
2,1,Potentiostatic EIS,32.4621,3.62867,-0.00225374,0.794327,0.0489106,-2.29162,0.0488715,0.00195572,0.19289,0.203612,0.00995879,2,2.51785,3.62867
2,1,Potentiostatic EIS,38.2405,3.62867,-0.00174626,0.630956,0.0489467,-2.40622,0.0489035,0.00205499,0.16665,0.203641,0.00996754,2,3.16979,3.62867
2,1,Potentiostatic EIS,45.5151,3.62867,-0.00143257,0.501186,0.0490199,-2.53965,0.0489718,0.00217211,0.201005,0.203415,0.0099714,2,3.99054,3.62867
2,1,Potentiostatic EIS,52.8053,3.62867,-0.00132913,0.5,0.0489248,-2.54689,0.0488765,0.00217407,0.187796,0.203724,0.00996716,2,4,3.62867