Folder: feature-extraction-paper-2024/Data/P180/P180_04/EIS_04_P180_04_4

Note: README.md
# feature-extraction-paper-2024
Repository for code used and referenced in 2024 feature extraction paper

File: 2_EIS_04_P180_04_4 20230822 152850.csv
Step number,Repeats,Step name,Elapsed Time  (s),DC Working Electrode (V),DC Current (A),Frequency (Hz),|Z| (Ohms),Phase (deg),Z' (Ohms),-Z" (Ohms),THD (%),Amplitude (A),Amplitude (V),No of Cycles,Duration of Each Frequency (s),IR Compensated DC Working Electrode (V)
2,1,Potentiostatic EIS,0,3.60805,-0.0125614,1000000,1.90306,86.7914,0.106518,-1.90008,0.956536,0.00527608,0.0100408,1430,0.00143,3.60805
2,1,Potentiostatic EIS,0.254001,3.60795,-0.0145753,794328,1.53197,86.2423,0.1004,-1.52867,1.10316,0.00653276,0.010008,1445,0.00181915,3.60795
2,1,Potentiostatic EIS,0.514151,3.60788,-0.0158522,630957.375,1.22203,85.8647,0.0881228,-1.21885,1.09838,0.00817785,0.00999362,1355,0.00214753,3.60788
2,1,Potentiostatic EIS,0.783812,3.60781,-0.0173545,501187.25,0.981748,85.8924,0.0703221,-0.979226,1.2373,0.010114,0.00992937,1385,0.00276344,3.60781
2,1,Potentiostatic EIS,1.09181,3.60775,-0.0187168,398107,0.786972,84.9259,0.0696028,-0.783888,1.30564,0.0126892,0.00998603,1400,0.00351664,3.60775
2,1,Potentiostatic EIS,1.42049,3.60768,-0.0197468,316228,0.627181,84.5017,0.0600939,-0.624295,1.28462,0.0158631,0.00994903,1370,0.00433232,3.60768
2,1,Potentiostatic EIS,1.78611,3.60759,-0.0214369,251189,0.505686,83.6079,0.0562993,-0.502542,1.45114,0.0197577,0.00999123,1340,0.00533464,3.60759
2,1,Potentiostatic EIS,2.24731,3.60751,-0.0228893,199526,0.40458,83.1628,0.0481644,-0.401703,1.51599,0.0245213,0.00992085,1355,0.00679109,3.60751
2,1,Potentiostatic EIS,2.71025,3.60745,-0.0239389,158489,0.326143,82.1139,0.0447483,-0.323058,1.78449,0.0297505,0.00970323,1360,0.00858102,3.60745
2,1,Potentiostatic EIS,3.29521,3.60733,-0.0264071,125893,0.262845,81.0408,0.0409329,-0.259638,1.94192,0.0379336,0.00997067,1370,0.0108823,3.60733
2,1,Potentiostatic EIS,3.97522,3.60722,-0.0284581,100000,0.211314,79.7395,0.0376401,-0.207935,1.96632,0.0471434,0.00996207,1370,0.0137,3.60722
2,1,Potentiostatic EIS,4.96323,3.60711,-0.0291287,79432.8,0.171082,78.0532,0.0354144,-0.167376,2.70835,0.0583064,0.00997517,1365,0.0171843,3.60711
2,1,Potentiostatic EIS,5.33544,3.60769,-0.0145869,63095.7,0.138165,76.3205,0.0326746,-0.134245,4.02644,0.0720621,0.00995646,1290,0.0204451,3.60769
2,1,Potentiostatic EIS,5.55837,3.60769,-0.0146226,50118.75,0.112326,74.1032,0.0307667,-0.10803,4.8784,0.0893231,0.0100333,1025,0.0204514,3.60769
2,1,Potentiostatic EIS,5.77894,3.60768,-0.0148996,39810.7,0.0919779,71.4651,0.0292382,-0.087207,5.29778,0.109202,0.0100443,815,0.0204719,3.60768
2,1,Potentiostatic EIS,5.99892,3.60766,-0.0149374,31622.8,0.0760526,68.2184,0.0282208,-0.0706228,6.03035,0.133026,0.010117,645,0.0203967,3.60766
2,1,Potentiostatic EIS,6.22271,3.60802,-0.00646604,25118.9,0.0630289,64.6878,0.026948,-0.0569776,6.51844,0.161056,0.0101512,510,0.0203034,3.60802
2,1,Potentiostatic EIS,6.44356,3.60806,-0.00554823,19952.6,0.0525571,60.4803,0.0258961,-0.0457345,6.74654,0.193072,0.0101471,405,0.0202981,3.60806
2,1,Potentiostatic EIS,6.66999,3.60809,-0.00487158,15848.9,0.0441795,55.7845,0.0248424,-0.0365333,6.85418,0.227749,0.0100619,320,0.0201906,3.60809
2,1,Potentiostatic EIS,6.9137,3.60815,-0.00358817,12589.2,0.0380906,50.4297,0.0242646,-0.0293619,6.71181,0.261393,0.00995663,255,0.0202554,3.60815
2,1,Potentiostatic EIS,7.22266,3.6081,-0.00309988,9999.98,0.0335823,44.8938,0.0237902,-0.0237022,3.02051,0.29721,0.00998099,307,0.0307001,3.6081
2,1,Potentiostatic EIS,7.43402,3.60813,-0.00242638,7943.27,0.0300805,39.6105,0.0231739,-0.0191783,3.69179,0.286094,0.00860584,244,0.0307178,3.60813
2,1,Potentiostatic EIS,7.64966,3.60814,-0.00246041,6309.57,0.0266234,33.6978,0.02215,-0.014771,4.03729,0.370245,0.00985716,193,0.0305885,3.60814
2,1,Potentiostatic EIS,7.8612,3.60814,-0.00240199,5011.87,0.0251023,26.2275,0.022518,-0.0110936,3.98588,0.416778,0.0104621,153,0.0305276,3.60814
2,1,Potentiostatic EIS,8.07369,3.60817,-0.00144857,3981.07,0.024288,20.6032,0.0227345,-0.00854679,3.79937,0.422414,0.0102596,122,0.0306451,3.60817
2,1,Potentiostatic EIS,8.24189,3.60821,-0.000702937,3162.27,0.0237621,15.8781,0.0228555,-0.00650113,3.65858,0.368829,0.00876417,97,0.0306742,3.60821
2,1,Potentiostatic EIS,8.40941,3.60819,-0.00122391,2511.88,0.0234597,11.8879,0.0229566,-0.00483263,3.27091,0.447875,0.010507,77,0.0306543,3.60819
2,1,Potentiostatic EIS,8.57764,3.60823,-0.000385931,1995.26,0.0233371,8.54894,0.0230778,-0.00346916,2.89337,0.440462,0.0102791,61,0.0305725,3.60823
2,1,Potentiostatic EIS,8.74485,3.60823,-0.00036599,1584.89,0.0233357,5.67875,0.0232212,-0.00230909,2.75448,0.433708,0.0101209,48,0.030286,3.60823
2,1,Potentiostatic EIS,8.87102,3.60823,-0.000189599,1258.92,0.0234228,3.33477,0.0233831,-0.0013625,2.61127,0.403249,0.00944521,38,0.0301845,3.60823
2,1,Potentiostatic EIS,8.99489,3.60824,-0.000276202,999.999,0.0235776,1.39075,0.0235706,-0.000572248,2.39676,0.436277,0.0102864,30,0.03,3.60824
2,1,Potentiostatic EIS,9.11854,3.60825,2.77794e-05,794.328,0.0237894,-0.331682,0.023789,0.000137715,2.28624,0.427281,0.0101647,24,0.0302142,3.60825
2,1,Potentiostatic EIS,9.2423,3.60826,0.000182131,630.956,0.0240596,-1.85506,0.024047,0.000778837,2.21105,0.419282,0.0100878,19,0.030113,3.60826
2,1,Potentiostatic EIS,9.3657,3.60828,0.000905676,501.187,0.0243603,-3.21137,0.024322,0.00136465,2.11302,0.41287,0.0100576,15,0.029929,3.60828
2,1,Potentiostatic EIS,9.44577,3.60827,0.000445362,398.107,0.0247372,-4.44341,0.0246629,0.0019165,2.049,0.351849,0.00870377,12,0.0301427,3.60827
2,1,Potentiostatic EIS,9.52328,3.60828,0.000723962,316.228,0.0251594,-5.60989,0.0250389,0.00245945,1.8964,0.366488,0.00922061,9,0.0284605,3.60828
2,1,Potentiostatic EIS,9.60567,3.60827,0.000783705,251.189,0.0256787,-6.66608,0.0255051,0.00298085,1.72109,0.372258,0.00955908,8,0.0318486,3.60827
2,1,Potentiostatic EIS,9.69499,3.60827,0.000777855,199.526,0.0262813,-7.63007,0.0260486,0.00348954,1.5534,0.37153,0.0097643,8,0.0400951,3.60827
2,1,Potentiostatic EIS,9.79516,3.60827,0.000699437,158.489,0.0269743,-8.5413,0.0266751,0.00400628,1.31618,0.366187,0.00987765,8,0.0504766,3.60827
2,1,Potentiostatic EIS,9.91103,3.60827,0.000514474,125.892,0.0277705,-9.25189,0.0274092,0.00446481,1.16507,0.357882,0.00993857,8,0.0635464,3.60827
2,1,Potentiostatic EIS,10.0419,3.60827,0.000601737,100,0.0286522,-9.78944,0.028235,0.00487168,0.949352,0.347543,0.0099579,8,0.08,3.60827
2,1,Potentiostatic EIS,10.1934,3.60827,0.000554157,79.4327,0.029611,-10.0985,0.0291522,0.00519204,0.757744,0.336556,0.00996574,8,0.100714,3.60827
2,1,Potentiostatic EIS,10.3727,3.60827,0.000579637,63.0956,0.0305936,-10.2015,0.03011,0.00541845,0.64872,0.325402,0.00995522,8,0.126792,3.60827
2,1,Potentiostatic EIS,10.5861,3.60828,0.00110514,50.1186,0.0315825,-10.1608,0.0310872,0.00557152,0.538009,0.309715,0.00978156,8,0.159621,3.60828
2,1,Potentiostatic EIS,10.845,3.60826,0.000134895,39.8107,0.0325723,-9.92302,0.032085,0.00561302,0.423802,0.301198,0.0098107,8,0.200951,3.60826
2,1,Potentiostatic EIS,10.9896,3.60825,-0.000128285,31.6228,0.0335421,-9.58578,0.0330737,0.00558556,0.348549,0.295548,0.00991322,2,0.0632456,3.60825
2,1,Potentiostatic EIS,11.1515,3.60826,-0.000188656,25.1188,0.0344337,-9.19648,0.0339911,0.00550321,0.297036,0.280361,0.00965383,2,0.0796217,3.60826
2,1,Potentiostatic EIS,11.3511,3.60826,-0.000178338,19.9526,0.0353343,-8.77897,0.0349203,0.00539282,0.273171,0.276248,0.00976103,2,0.100238,3.60826
2,1,Potentiostatic EIS,11.5979,3.60828,0.000117299,15.8489,0.0362071,-8.28105,0.0358295,0.00521486,0.264008,0.271435,0.00982788,2,0.126192,3.60828
2,1,Potentiostatic EIS,11.9045,3.60827,-6.5593e-05,12.5892,0.0370418,-7.68298,0.0367093,0.00495219,0.24067,0.266616,0.00987592,2,0.158866,3.60827
2,1,Potentiostatic EIS,12.2859,3.60826,-0.000363309,9.99998,0.0377976,-7.0515,0.0375117,0.00464009,0.225601,0.262057,0.00990513,2,0.2,3.60826
2,1,Potentiostatic EIS,12.7608,3.60827,-3.15852e-05,7.94328,0.0384955,-6.39729,0.0382558,0.00428924,0.225877,0.257741,0.00992184,2,0.251785,3.60827
2,1,Potentiostatic EIS,13.3546,3.60827,-0.000326291,6.30957,0.0390693,-5.69649,0.0388764,0.00387797,0.201859,0.254247,0.00993326,2,0.316979,3.60827
2,1,Potentiostatic EIS,14.0979,3.60827,-0.000376236,5.01186,0.0395505,-5.07304,0.0393956,0.00349728,0.198824,0.251353,0.00994115,2,0.399053,3.60827
2,1,Potentiostatic EIS,15.0252,3.60826,-0.000471762,3.98106,0.0399522,-4.47784,0.0398302,0.00311921,0.196568,0.248938,0.00994559,2,0.502378,3.60826
2,1,Potentiostatic EIS,16.1899,3.60826,-0.000562474,3.16227,0.0402479,-3.97784,0.0401509,0.00279202,0.20417,0.247191,0.00994892,2,0.632458,3.60826
2,1,Potentiostatic EIS,17.6523,3.60827,-0.000709171,2.51188,0.0404923,-3.55604,0.0404144,0.00251153,0.168657,0.245797,0.00995288,2,0.796216,3.60827
2,1,Potentiostatic EIS,19.4907,3.60827,-0.000588503,1.99526,0.0407162,-3.21921,0.0406519,0.00228647,0.17893,0.244628,0.00996032,2,1.00238,3.60827
2,1,Potentiostatic EIS,21.8009,3.60827,-0.000659405,1.58489,0.040901,-2.98317,0.0408456,0.0021286,0.177039,0.243512,0.00995984,2,1.26192,3.60827
2,1,Potentiostatic EIS,24.7055,3.60826,-0.00124147,1.25892,0.0410385,-2.83493,0.0409882,0.00202971,0.187407,0.242455,0.00994995,2,1.58866,3.60826
2,1,Potentiostatic EIS,28.3577,3.60827,-0.000695452,0.999998,0.0411915,-2.7587,0.0411437,0.00198253,0.1768,0.241867,0.00996284,2,2,3.60827
2,1,Potentiostatic EIS,32.9524,3.60827,-0.0008083,0.794327,0.041326,-2.77347,0.0412776,0.00199965,0.173765,0.241055,0.00996185,2,2.51785,3.60827
2,1,Potentiostatic EIS,38.7312,3.60827,-0.00130865,0.630956,0.0414972,-2.85654,0.0414457,0.00206803,0.18135,0.239923,0.00995611,2,3.16979,3.60827
2,1,Potentiostatic EIS,46.005,3.60827,-0.000450468,0.501186,0.0416645,-3.0635,0.041605,0.00222666,0.202176,0.239061,0.00996036,2,3.99054,3.60827
2,1,Potentiostatic EIS,53.294,3.60828,-0.000390485,0.5,0.041696,-3.07753,0.0416359,0.00223854,0.469641,0.238989,0.00996495,2,4,3.60828