Folder: feature-extraction-paper-2024/Data/P180/P180_04/EIS_08_P180_04_4

Note: README.md
# feature-extraction-paper-2024
Repository for code used and referenced in 2024 feature extraction paper

File: 2_EIS_08_P180_04_4 20230828 114959.csv
Step number,Repeats,Step name,Elapsed Time  (s),DC Working Electrode (V),DC Current (A),Frequency (Hz),|Z| (Ohms),Phase (deg),Z' (Ohms),-Z" (Ohms),THD (%),Amplitude (A),Amplitude (V),No of Cycles,Duration of Each Frequency (s),IR Compensated DC Working Electrode (V)
2,1,Potentiostatic EIS,0,3.59714,-0.0134998,1000000,1.7167,86.1949,0.113925,-1.71291,0.997681,0.00585345,0.0100483,1430,0.00143,3.59714
2,1,Potentiostatic EIS,0.246787,3.59705,-0.0154469,794328,1.38251,85.8052,0.101126,-1.3788,1.26724,0.00721542,0.00997523,1445,0.00181915,3.59705
2,1,Potentiostatic EIS,0.508127,3.59699,-0.0164957,630957.375,1.10637,85.1619,0.0933121,-1.10242,1.27413,0.00900453,0.00996247,1355,0.00214753,3.59699
2,1,Potentiostatic EIS,0.787363,3.59689,-0.0181923,501187.25,0.889435,85.0075,0.0774033,-0.886061,1.26075,0.0110156,0.00979825,1385,0.00276344,3.59689
2,1,Potentiostatic EIS,1.09142,3.59683,-0.0194558,398107,0.713077,84.0229,0.074254,-0.7092,1.42602,0.0139802,0.00996902,1400,0.00351664,3.59683
2,1,Potentiostatic EIS,1.42235,3.59674,-0.0214417,316228,0.57033,83.468,0.0648793,-0.566627,1.8222,0.0174131,0.0099312,1370,0.00433232,3.59674
2,1,Potentiostatic EIS,1.94424,3.59663,-0.0225565,251189,0.459899,82.4499,0.0604275,-0.455912,1.74683,0.0216952,0.00997759,1340,0.00533464,3.59663
2,1,Potentiostatic EIS,2.35527,3.59654,-0.024368,199526,0.36927,81.9408,0.0517701,-0.365623,1.8065,0.026642,0.00983804,1355,0.00679109,3.59654
2,1,Potentiostatic EIS,2.86037,3.59642,-0.026702,158489,0.298009,80.647,0.0484314,-0.294047,2.02791,0.0333793,0.00994735,1360,0.00858102,3.59642
2,1,Potentiostatic EIS,3.43911,3.59629,-0.0286153,125893,0.241297,79.3782,0.0444771,-0.237163,1.98986,0.0414123,0.00999265,1370,0.0108823,3.59629
2,1,Potentiostatic EIS,4.11123,3.5961,-0.0319553,100000,0.194372,77.8531,0.0408995,-0.19002,2.14292,0.0512888,0.00996913,1370,0.0137,3.5961
2,1,Potentiostatic EIS,5.23007,3.59676,-0.0163931,79432.8,0.157669,75.7444,0.0388258,-0.152814,5.34455,0.0634572,0.0100052,1365,0.0171843,3.59676
2,1,Potentiostatic EIS,5.44564,3.59675,-0.0166577,63095.7,0.128331,73.7681,0.0358718,-0.123215,4.39327,0.0782871,0.0100466,1290,0.0204451,3.59675
2,1,Potentiostatic EIS,5.67342,3.59676,-0.0162445,50118.75,0.105094,71.1139,0.0340178,-0.0994365,5.0009,0.0956754,0.0100545,1025,0.0204514,3.59676
2,1,Potentiostatic EIS,5.89887,3.59675,-0.0162178,39810.7,0.0866406,67.9916,0.032468,-0.080327,5.57942,0.116125,0.010061,815,0.0204719,3.59675
2,1,Potentiostatic EIS,6.12444,3.59674,-0.015651,31622.8,0.0720822,64.176,0.0313996,-0.0648838,6.14016,0.140072,0.0100967,645,0.0203967,3.59674
2,1,Potentiostatic EIS,6.34704,3.59711,-0.007855,25118.9,0.060691,60.2984,0.0300714,-0.0527172,6.41497,0.167587,0.0101709,510,0.0203034,3.59711
2,1,Potentiostatic EIS,6.56882,3.59716,-0.00660118,19952.6,0.0512254,55.6494,0.0289042,-0.0422917,6.70751,0.198222,0.0101542,405,0.0202981,3.59716
2,1,Potentiostatic EIS,6.79702,3.5972,-0.00612399,15848.9,0.0438264,50.5422,0.0278521,-0.0338381,6.59986,0.229635,0.0100643,320,0.0201906,3.5972
2,1,Potentiostatic EIS,7.01784,3.59723,-0.00489758,12589.2,0.0386154,45.0009,0.0273048,-0.0273056,6.3022,0.259245,0.0100109,255,0.0202554,3.59723
2,1,Potentiostatic EIS,7.3246,3.59713,-0.00398171,9999.98,0.0346781,39.3989,0.0267973,-0.0220107,2.83442,0.287666,0.00997571,307,0.0307001,3.59713
2,1,Potentiostatic EIS,7.53834,3.59717,-0.00332667,7943.27,0.031728,34.2728,0.0262189,-0.0178671,3.40632,0.286853,0.00910128,244,0.0307178,3.59717
2,1,Potentiostatic EIS,7.75208,3.59718,-0.0035135,6309.57,0.0286846,28.7097,0.0251583,-0.0137793,3.68997,0.370958,0.0106408,193,0.0305885,3.59718
2,1,Potentiostatic EIS,7.96564,3.59719,-0.00303513,5011.87,0.0274734,21.926,0.0254862,-0.0102588,3.7198,0.379128,0.010416,153,0.0305276,3.59719
2,1,Potentiostatic EIS,8.18067,3.59725,-0.00179736,3981.07,0.0268926,17.0418,0.0257118,-0.00788138,3.57285,0.379425,0.0102037,122,0.0306451,3.59725
2,1,Potentiostatic EIS,8.34944,3.59728,-0.00118772,3162.27,0.0264898,13.0874,0.0258018,-0.00599828,3.42534,0.367525,0.00973567,97,0.0306742,3.59728
2,1,Potentiostatic EIS,8.51914,3.59727,-0.00172392,2511.88,0.0262844,9.72491,0.0259067,-0.00443991,3.14877,0.397121,0.0104381,77,0.0306543,3.59727
2,1,Potentiostatic EIS,8.68971,3.5973,-0.00089623,1995.26,0.0262104,6.8962,0.0260208,-0.00314711,2.93944,0.389739,0.0102152,61,0.0305725,3.5973
2,1,Potentiostatic EIS,8.81316,3.59729,-0.00115263,1584.89,0.0262415,4.51748,0.02616,-0.00206687,2.71706,0.338801,0.00889066,48,0.030286,3.59729
2,1,Potentiostatic EIS,8.93727,3.59729,-0.00106781,1258.92,0.0263519,2.5489,0.0263258,-0.00117192,2.50364,0.390844,0.0102995,38,0.0301845,3.59729
2,1,Potentiostatic EIS,9.06187,3.5973,-0.00110195,999.999,0.0265189,0.879632,0.0265158,-0.000407115,2.41878,0.386334,0.0102451,30,0.03,3.5973
2,1,Potentiostatic EIS,9.18742,3.59732,-0.000551014,794.328,0.026739,-0.552497,0.0267378,0.000257837,2.3542,0.378943,0.0101326,24,0.0302142,3.59732
2,1,Potentiostatic EIS,9.31039,3.59733,-0.000285327,630.956,0.0269899,-1.83714,0.026976,0.000865262,2.27462,0.372969,0.0100664,19,0.030113,3.59733
2,1,Potentiostatic EIS,9.43437,3.59731,-5.13881e-05,501.187,0.0272903,-3.00019,0.0272529,0.00142835,2.14972,0.36781,0.0100376,15,0.029929,3.59731
2,1,Potentiostatic EIS,9.51417,3.59733,-2.7438e-05,398.107,0.0276681,-4.08561,0.0275978,0.00197127,2.06671,0.320042,0.00885495,12,0.0301427,3.59733
2,1,Potentiostatic EIS,9.59348,3.59734,7.20894e-05,316.228,0.0280659,-5.14417,0.0279529,0.00251645,1.86767,0.331622,0.0093073,9,0.0284605,3.59734
2,1,Potentiostatic EIS,9.67435,3.59734,5.62302e-05,251.189,0.0285979,-6.12467,0.0284347,0.00305117,1.68546,0.335926,0.00960679,8,0.0318486,3.59734
2,1,Potentiostatic EIS,9.76318,3.59734,-2.45122e-05,199.526,0.0291986,-7.01525,0.02898,0.00356612,1.49847,0.335095,0.0097843,8,0.0400951,3.59734
2,1,Potentiostatic EIS,9.86291,3.59733,2.1561e-05,158.489,0.0298826,-7.8181,0.0296048,0.00406488,1.27672,0.330734,0.00988319,8,0.0504766,3.59733
2,1,Potentiostatic EIS,9.97624,3.59733,6.46606e-06,125.892,0.0306927,-8.51043,0.0303548,0.0045422,1.08273,0.323781,0.00993773,8,0.0635464,3.59733
2,1,Potentiostatic EIS,10.1048,3.59732,-0.000137888,100,0.0315861,-9.06261,0.0311918,0.00497525,0.894705,0.315359,0.00996096,8,0.08,3.59732
2,1,Potentiostatic EIS,10.2559,3.59732,-8.1036e-05,79.4327,0.0325473,-9.40453,0.0321098,0.00531836,0.725521,0.306068,0.00996167,8,0.100714,3.59732
2,1,Potentiostatic EIS,10.4364,3.59733,-0.000101735,63.0956,0.0335882,-9.5284,0.0331248,0.00556007,0.591453,0.296531,0.00995992,8,0.126792,3.59733
2,1,Potentiostatic EIS,10.6502,3.59734,0.000473147,50.1186,0.0346909,-9.56123,0.034209,0.00576221,0.496711,0.282345,0.00979477,8,0.159621,3.59734
2,1,Potentiostatic EIS,10.91,3.59732,-0.000618539,39.8107,0.0357668,-9.33916,0.0352927,0.00580418,0.407599,0.274527,0.00981896,8,0.200951,3.59732
2,1,Potentiostatic EIS,11.0539,3.59732,-0.00174178,31.6228,0.0366872,-9.11682,0.0362237,0.00581301,0.334988,0.270303,0.00991672,2,0.0632456,3.59732
2,1,Potentiostatic EIS,11.2161,3.59732,-0.000707295,25.1188,0.0376936,-8.69745,0.0372601,0.00569991,0.27072,0.256487,0.00966784,2,0.0796217,3.59732
2,1,Potentiostatic EIS,11.4157,3.59733,-0.000511455,19.9526,0.0386032,-8.29052,0.0381998,0.00556629,0.253989,0.253091,0.00977004,2,0.100238,3.59733
2,1,Potentiostatic EIS,11.6628,3.59733,-0.000919893,15.8489,0.0394769,-7.79918,0.0391117,0.00535706,0.255065,0.24917,0.00983645,2,0.126192,3.59733
2,1,Potentiostatic EIS,11.9692,3.59733,-0.000902579,12.5892,0.0403327,-7.24003,0.0400111,0.00508298,0.221985,0.245092,0.00988523,2,0.158866,3.59733
2,1,Potentiostatic EIS,12.3507,3.59732,-0.000770807,9.99998,0.0411029,-6.63166,0.0408279,0.00474681,0.20197,0.241147,0.00991184,2,0.2,3.59732
2,1,Potentiostatic EIS,12.8257,3.59732,-0.000721902,7.94328,0.0417546,-5.98738,0.0415268,0.00435539,0.194554,0.237762,0.00992764,2,0.251785,3.59732
2,1,Potentiostatic EIS,13.4194,3.59732,-0.000945554,6.30957,0.0423447,-5.36568,0.0421592,0.00395974,0.193242,0.234845,0.00994439,2,0.316979,3.59732
2,1,Potentiostatic EIS,14.1602,3.59732,-0.00111948,5.01186,0.0428144,-4.76136,0.0426667,0.00355385,0.192086,0.232243,0.00994336,2,0.399053,3.59732
2,1,Potentiostatic EIS,15.0878,3.59731,-0.00104672,3.98106,0.043202,-4.1987,0.043086,0.00316306,0.174137,0.23033,0.00995069,2,0.502378,3.59731
2,1,Potentiostatic EIS,16.2533,3.59732,-0.00107405,3.16227,0.0435787,-3.7225,0.0434868,0.00282931,0.173612,0.228404,0.00995353,2,0.632458,3.59732
2,1,Potentiostatic EIS,17.7158,3.59732,-0.0013626,2.51188,0.0438054,-3.32832,0.0437316,0.00254323,0.18321,0.227287,0.00995638,2,0.796216,3.59732
2,1,Potentiostatic EIS,19.5547,3.59733,-0.00102289,1.99526,0.0439795,-3.02701,0.0439182,0.00232241,0.167484,0.226594,0.00996549,2,1.00238,3.59733
2,1,Potentiostatic EIS,21.8644,3.59732,-0.00101151,1.58489,0.044164,-2.80737,0.044111,0.00216308,0.18242,0.22556,0.00996162,2,1.26192,3.59732
2,1,Potentiostatic EIS,24.7692,3.59732,-0.00147219,1.25892,0.0443108,-2.66698,0.0442629,0.00206182,0.175936,0.2249,0.00996551,2,1.58866,3.59732
2,1,Potentiostatic EIS,28.4215,3.59732,-0.00120534,0.999998,0.0444541,-2.59567,0.0444085,0.00201321,0.162907,0.224284,0.00997036,2,2,3.59732
2,1,Potentiostatic EIS,33.016,3.59733,-0.000944699,0.794327,0.0445938,-2.64545,0.0445463,0.00205824,0.174736,0.223454,0.00996465,2,2.51785,3.59733
2,1,Potentiostatic EIS,38.7952,3.59732,-0.00142078,0.630956,0.0447319,-2.71909,0.0446815,0.00212205,0.17254,0.222695,0.00996158,2,3.16979,3.59732
2,1,Potentiostatic EIS,46.0686,3.59732,-0.000744991,0.501186,0.0448822,-2.90004,0.0448247,0.00227075,0.215332,0.222097,0.0099682,2,3.99054,3.59732
2,1,Potentiostatic EIS,53.3589,3.59732,-0.000804862,0.5,0.0448587,-2.9098,0.0448008,0.00227719,0.208615,0.222175,0.00996646,2,4,3.59732