Folder: feature-extraction-paper-2024/Data/P180/P180_04/EIS_08_P180_04_2

Note: README.md
# feature-extraction-paper-2024
Repository for code used and referenced in 2024 feature extraction paper

File: 2_EIS_08_P180_04_2 20230828 114257.csv
Step number,Repeats,Step name,Elapsed Time  (s),DC Working Electrode (V),DC Current (A),Frequency (Hz),|Z| (Ohms),Phase (deg),Z' (Ohms),-Z" (Ohms),THD (%),Amplitude (A),Amplitude (V),No of Cycles,Duration of Each Frequency (s),IR Compensated DC Working Electrode (V)
2,1,Potentiostatic EIS,0,3.58713,-0.0117538,1000000,2.15199,87.2916,0.101687,-2.14959,0.952386,0.00465131,0.0100096,1430,0.00143,3.58713
2,1,Potentiostatic EIS,0.247864,3.58704,-0.0132079,794328,1.72646,86.7649,0.0974289,-1.72371,1.09757,0.00582183,0.010051,1445,0.00181915,3.58704
2,1,Potentiostatic EIS,0.507211,3.58699,-0.0141038,630957.375,1.38064,86.1838,0.0918905,-1.37758,1.05672,0.00722619,0.00997679,1355,0.00214753,3.58699
2,1,Potentiostatic EIS,0.780702,3.58694,-0.0151052,501187.25,1.10741,86.2406,0.0726098,-1.10502,0.940684,0.00901104,0.0099789,1385,0.00276344,3.58694
2,1,Potentiostatic EIS,1.06463,3.58687,-0.0165265,398107,0.885831,85.3936,0.0711411,-0.88297,1.24485,0.011155,0.00988134,1400,0.00351664,3.58687
2,1,Potentiostatic EIS,1.39211,3.58684,-0.0169881,316228,0.705759,85.0442,0.0609689,-0.703121,1.17105,0.0140836,0.00993964,1370,0.00433232,3.58684
2,1,Potentiostatic EIS,1.75969,3.58678,-0.0182252,251189,0.569426,84.0683,0.0588457,-0.566377,1.18737,0.0175193,0.00997596,1340,0.00533464,3.58678
2,1,Potentiostatic EIS,2.20356,3.58668,-0.0200096,199526,0.454488,83.6667,0.0501359,-0.451714,1.40826,0.0218309,0.00992186,1355,0.00679109,3.58668
2,1,Potentiostatic EIS,2.66849,3.58659,-0.0215103,158489,0.366247,82.678,0.0466763,-0.363261,1.38348,0.0271059,0.00992751,1360,0.00858102,3.58659
2,1,Potentiostatic EIS,3.24587,3.5865,-0.0232638,125893,0.295203,81.8099,0.0420538,-0.292193,1.80442,0.0338369,0.00998879,1370,0.0108823,3.5865
2,1,Potentiostatic EIS,3.91878,3.58642,-0.0244333,100000,0.237204,80.6116,0.0386943,-0.234026,1.8542,0.0420005,0.00996268,1370,0.0137,3.58642
2,1,Potentiostatic EIS,4.6687,3.58634,-0.0252449,79432.8,0.191644,78.9989,0.0365711,-0.188122,2.4541,0.052202,0.0100042,1365,0.0171843,3.58634
2,1,Potentiostatic EIS,5.03991,3.58622,-0.0270218,63095.7,0.154606,77.5438,0.0333476,-0.150967,1.94108,0.0644991,0.00997201,1290,0.0204451,3.58622
2,1,Potentiostatic EIS,5.41804,3.5868,-0.0131704,50118.75,0.125487,75.5217,0.0313735,-0.121502,4.3814,0.0793641,0.00995921,1025,0.0204514,3.5868
2,1,Potentiostatic EIS,5.63836,3.58681,-0.0131869,39810.7,0.102539,73.0232,0.0299399,-0.0980708,4.979,0.0979301,0.0100418,815,0.0204719,3.58681
2,1,Potentiostatic EIS,5.86217,3.5868,-0.0131936,31622.8,0.0840554,70.1628,0.028524,-0.0790677,5.81067,0.120047,0.0100906,645,0.0203967,3.5868
2,1,Potentiostatic EIS,6.09686,3.58714,-0.0050775,25118.9,0.0693432,66.9011,0.0272047,-0.0637839,6.38703,0.145904,0.0101177,510,0.0203034,3.58714
2,1,Potentiostatic EIS,6.3208,3.58717,-0.0044302,19952.6,0.0574817,62.8899,0.0261945,-0.0511664,6.66018,0.176204,0.0101287,405,0.0202981,3.58717
2,1,Potentiostatic EIS,6.55383,3.5872,-0.00352032,15848.9,0.0479179,58.5051,0.0250334,-0.0408589,6.91727,0.20956,0.0100417,320,0.0201906,3.5872
2,1,Potentiostatic EIS,6.78905,3.58724,-0.00296248,12589.2,0.0409803,53.4172,0.0244236,-0.0329071,6.87683,0.244489,0.0100191,255,0.0202554,3.58724
2,1,Potentiostatic EIS,7.09542,3.58714,-0.00236198,9999.98,0.0356933,47.852,0.0239519,-0.0264635,3.10916,0.279633,0.009981,307,0.0307001,3.58714
2,1,Potentiostatic EIS,7.30658,3.58718,-0.00185155,7943.27,0.0316576,42.4968,0.0233416,-0.0213862,3.76621,0.283069,0.00896128,244,0.0307178,3.58718
2,1,Potentiostatic EIS,7.51845,3.58718,-0.00192645,6309.57,0.027837,36.5937,0.0223498,-0.0165946,4.13369,0.366066,0.0101902,193,0.0305885,3.58718
2,1,Potentiostatic EIS,7.72922,3.58721,-0.00129107,5011.87,0.0258911,28.7918,0.0226903,-0.0124699,4.12054,0.403725,0.0104529,153,0.0305276,3.58721
2,1,Potentiostatic EIS,7.94104,3.58723,-0.000925381,3981.07,0.0248413,22.8729,0.022888,-0.00965549,3.91293,0.4125,0.010247,122,0.0306451,3.58723
2,1,Potentiostatic EIS,8.10867,3.58725,-0.000208604,3162.27,0.024147,17.7955,0.0229916,-0.0073798,3.69818,0.364655,0.00880531,97,0.0306742,3.58725
2,1,Potentiostatic EIS,8.27868,3.58725,-0.000217165,2511.88,0.0237484,13.5031,0.0230919,-0.00554521,3.30232,0.441322,0.0104807,77,0.0306543,3.58725
2,1,Potentiostatic EIS,8.44679,3.58726,-8.61858e-05,1995.26,0.0235672,9.80931,0.0232226,-0.00401513,2.95694,0.435936,0.0102738,61,0.0305725,3.58726
2,1,Potentiostatic EIS,8.61533,3.5873,0.000777236,1584.89,0.0235344,6.77052,0.0233703,-0.00277454,2.70066,0.429928,0.0101181,48,0.030286,3.5873
2,1,Potentiostatic EIS,8.73719,3.58729,0.000500486,1258.92,0.023597,4.16896,0.0235345,-0.00171545,2.57185,0.39899,0.00941494,38,0.0301845,3.58729
2,1,Potentiostatic EIS,8.86075,3.58729,0.000626357,999.999,0.0237246,2.05481,0.0237094,-0.000850658,2.35002,0.433598,0.010287,30,0.03,3.58729
2,1,Potentiostatic EIS,8.98431,3.58729,0.000704698,794.328,0.0239439,0.220881,0.0239437,-9.23059e-05,2.21121,0.423924,0.0101504,24,0.0302142,3.58729
2,1,Potentiostatic EIS,9.10785,3.5873,0.000728413,630.956,0.0241987,-1.40379,0.0241914,0.000592829,2.13522,0.417068,0.0100925,19,0.030113,3.5873
2,1,Potentiostatic EIS,9.23498,3.5873,0.000552889,501.187,0.02449,-2.84966,0.0244598,0.00121753,2.0535,0.410322,0.0100488,15,0.029929,3.5873
2,1,Potentiostatic EIS,9.31496,3.58731,0.000998269,398.107,0.0248616,-4.16378,0.024796,0.00180515,1.99764,0.349623,0.00869221,12,0.0301427,3.58731
2,1,Potentiostatic EIS,9.395,3.58732,0.00122909,316.228,0.0252745,-5.36786,0.0251637,0.00236443,1.83094,0.36452,0.00921306,9,0.0284605,3.58732
2,1,Potentiostatic EIS,9.47604,3.58733,0.00111327,251.189,0.0257875,-6.49122,0.0256222,0.0029153,1.64202,0.37042,0.00955219,8,0.0318486,3.58733
2,1,Potentiostatic EIS,9.56598,3.58732,0.00131816,199.526,0.0263914,-7.52534,0.0261641,0.00345634,1.4913,0.369841,0.00976061,8,0.0400951,3.58732
2,1,Potentiostatic EIS,9.66591,3.58732,0.00138992,158.489,0.027067,-8.43204,0.0267744,0.003969,1.27885,0.364913,0.00987709,8,0.0504766,3.58732
2,1,Potentiostatic EIS,9.77967,3.58731,0.0013768,125.892,0.0278565,-9.24162,0.027495,0.00447371,1.11572,0.356683,0.00993594,8,0.0635464,3.58731
2,1,Potentiostatic EIS,9.91039,3.58732,0.00128025,100,0.028756,-9.86289,0.028331,0.00492564,0.889417,0.346378,0.00996044,8,0.08,3.58732
2,1,Potentiostatic EIS,10.0633,3.58731,0.00123196,79.4327,0.0297278,-10.2354,0.0292547,0.00528241,0.743454,0.335245,0.00996609,8,0.100714,3.58731
2,1,Potentiostatic EIS,10.2435,3.5873,0.000874914,63.0956,0.030745,-10.3893,0.0302409,0.00554438,0.634403,0.323949,0.00995982,8,0.126792,3.5873
2,1,Potentiostatic EIS,10.4585,3.58732,0.00183078,50.1186,0.0317638,-10.4571,0.0312362,0.00576508,0.522701,0.30933,0.0098255,8,0.159621,3.58732
2,1,Potentiostatic EIS,10.7173,3.58731,0.00079583,39.8107,0.0327937,-10.2331,0.032272,0.0058259,0.423603,0.300057,0.00983998,8,0.200951,3.58731
2,1,Potentiostatic EIS,10.8602,3.58731,-0.000679859,31.6228,0.0337644,-10.0181,0.0332495,0.00587364,0.324139,0.293809,0.00992036,2,0.0632456,3.58731
2,1,Potentiostatic EIS,11.0226,3.58732,0.000460269,25.1188,0.0347757,-9.56904,0.0342919,0.00578098,0.27073,0.278138,0.00967245,2,0.0796217,3.58732
2,1,Potentiostatic EIS,11.2222,3.58732,0.000427146,19.9526,0.0357142,-9.12354,0.0352624,0.00566297,0.247651,0.273561,0.00976993,2,0.100238,3.58732
2,1,Potentiostatic EIS,11.4692,3.58732,0.00064518,15.8489,0.0366497,-8.63204,0.0362346,0.0055007,0.235067,0.268418,0.00983739,2,0.126192,3.58732
2,1,Potentiostatic EIS,11.7756,3.58732,0.00061601,12.5892,0.0375184,-8.06377,0.0371474,0.0052629,0.227638,0.263348,0.00988044,2,0.158866,3.58732
2,1,Potentiostatic EIS,12.1571,3.58731,0.000295051,9.99998,0.0383399,-7.41254,0.0380195,0.00494634,0.217946,0.258229,0.00990049,2,0.2,3.58731
2,1,Potentiostatic EIS,12.6318,3.58732,0.000257897,7.94328,0.0390698,-6.73802,0.0388,0.00458405,0.207572,0.2541,0.00992768,2,0.251785,3.58732
2,1,Potentiostatic EIS,13.2253,3.58731,-3.90112e-05,6.30957,0.0396944,-6.01786,0.0394757,0.0041615,0.198026,0.250232,0.00993279,2,0.316979,3.58731
2,1,Potentiostatic EIS,13.9659,3.58732,0.000258716,5.01186,0.0402368,-5.34521,0.0400619,0.00374831,0.185383,0.247173,0.00994546,2,0.399053,3.58732
2,1,Potentiostatic EIS,14.8932,3.58732,0.000252072,3.98106,0.0406717,-4.74466,0.0405324,0.00336418,0.191312,0.244778,0.00995551,2,0.502378,3.58732
2,1,Potentiostatic EIS,16.0582,3.58732,-0.000285372,3.16227,0.0410185,-4.21153,0.0409078,0.00301236,0.167187,0.242558,0.00994938,2,0.632458,3.58732
2,1,Potentiostatic EIS,17.5208,3.58732,-0.000115267,2.51188,0.0413164,-3.74422,0.0412282,0.00269806,0.184716,0.241081,0.00996059,2,0.796216,3.58732
2,1,Potentiostatic EIS,19.3594,3.58731,-0.000210459,1.99526,0.041532,-3.4135,0.0414583,0.00247288,0.200005,0.23957,0.00994982,2,1.00238,3.58731
2,1,Potentiostatic EIS,21.6698,3.58732,-0.000540853,1.58489,0.0417429,-3.12958,0.0416807,0.00227893,0.161192,0.238641,0.00996156,2,1.26192,3.58732
2,1,Potentiostatic EIS,24.5746,3.58732,-0.000362463,1.25892,0.0419252,-2.97659,0.0418686,0.00217709,0.170788,0.23765,0.0099635,2,1.58866,3.58732
2,1,Potentiostatic EIS,28.2268,3.58731,-0.000300052,0.999998,0.0420832,-2.8883,0.0420297,0.00212053,0.166484,0.236709,0.00996148,2,2,3.58731
2,1,Potentiostatic EIS,32.8212,3.58732,-0.000795649,0.794327,0.0422496,-2.90271,0.0421954,0.00213952,0.145934,0.235597,0.00995385,2,2.51785,3.58732
2,1,Potentiostatic EIS,38.6006,3.58732,-0.000294328,0.630956,0.0424175,-3.00054,0.0423593,0.00222036,0.151697,0.234931,0.00996519,2,3.16979,3.58732
2,1,Potentiostatic EIS,45.8753,3.58731,-0.000245094,0.501186,0.0425907,-3.16638,0.0425257,0.00235252,0.124561,0.233812,0.00995821,2,3.99054,3.58731
2,1,Potentiostatic EIS,53.1644,3.58731,-0.000375736,0.5,0.0425891,-3.19141,0.042523,0.00237101,0.133973,0.233942,0.00996336,2,4,3.58731