Folder: feature-extraction-paper-2024/Data/P180/P180_04/EIS_04_P180_04_1

Note: README.md
# feature-extraction-paper-2024
Repository for code used and referenced in 2024 feature extraction paper

File: 2_EIS_04_P180_04_1 20230822 151811.csv
Step number,Repeats,Step name,Elapsed Time  (s),DC Working Electrode (V),DC Current (A),Frequency (Hz),|Z| (Ohms),Phase (deg),Z' (Ohms),-Z" (Ohms),THD (%),Amplitude (A),Amplitude (V),No of Cycles,Duration of Each Frequency (s),IR Compensated DC Working Electrode (V)
2,1,Potentiostatic EIS,0,3.63617,-0.0123661,1000000,3.4387,88.0275,0.118361,-3.43666,1.01206,0.00289734,0.00996334,1430,0.00143,3.63617
2,1,Potentiostatic EIS,0.227913,3.63614,-0.0130289,794328,2.74788,87.7496,0.107901,-2.74576,1.15422,0.00360985,0.00991955,1445,0.00181915,3.63614
2,1,Potentiostatic EIS,0.466516,3.63611,-0.0135418,630957.375,2.18896,87.2104,0.106535,-2.18636,1.01601,0.00451872,0.00989145,1355,0.00214753,3.63611
2,1,Potentiostatic EIS,0.741298,3.63606,-0.0143244,501187.25,1.74616,87.2461,0.0838951,-1.74414,1.08958,0.00572462,0.00999612,1385,0.00276344,3.63606
2,1,Potentiostatic EIS,1.01849,3.63602,-0.0148007,398107,1.39253,86.5701,0.083311,-1.39004,1.10191,0.00714756,0.00995323,1400,0.00351664,3.63602
2,1,Potentiostatic EIS,1.3187,3.63597,-0.0154186,316228,1.1127,86.1883,0.0739691,-1.11024,1.17257,0.00893055,0.00993703,1370,0.00433232,3.63597
2,1,Potentiostatic EIS,1.65572,3.63593,-0.0160062,251189,0.893384,85.4334,0.0711294,-0.890548,1.22988,0.0111763,0.00998475,1340,0.00533464,3.63593
2,1,Potentiostatic EIS,2.0743,3.63587,-0.0171042,199526,0.711621,85.1771,0.0598307,-0.709101,1.32385,0.0139494,0.0099267,1355,0.00679109,3.63587
2,1,Potentiostatic EIS,2.53435,3.63581,-0.0176205,158489,0.573036,84.2776,0.0571369,-0.57018,1.38657,0.0173834,0.00996135,1360,0.00858102,3.63581
2,1,Potentiostatic EIS,3.07071,3.63577,-0.0188365,125893,0.460486,83.5812,0.05148,-0.457599,1.48689,0.0216908,0.00998834,1370,0.0108823,3.63577
2,1,Potentiostatic EIS,3.70116,3.63567,-0.0199415,100000,0.368231,82.685,0.046885,-0.365234,1.74361,0.0270514,0.00996121,1370,0.0137,3.63567
2,1,Potentiostatic EIS,4.37217,3.6356,-0.0209408,79432.8,0.296922,81.5276,0.0437462,-0.293682,2.06971,0.0336325,0.00998624,1365,0.0171843,3.6356
2,1,Potentiostatic EIS,4.62323,3.63559,-0.0224207,63095.7,0.23808,80.4286,0.0395871,-0.234766,1.70916,0.0420095,0.0100016,1290,0.0204451,3.63559
2,1,Potentiostatic EIS,4.88082,3.63547,-0.0240525,50118.75,0.192782,78.9227,0.0370399,-0.18919,1.845,0.0519633,0.0100192,1025,0.0204514,3.63547
2,1,Potentiostatic EIS,5.20163,3.63545,-0.0237516,39810.7,0.15569,76.9731,0.0350938,-0.151683,1.83144,0.0634853,0.0098841,815,0.0204719,3.63545
2,1,Potentiostatic EIS,5.5489,3.63584,-0.0142897,31622.8,0.126923,74.4772,0.0339674,-0.122293,4.20116,0.0777829,0.00987249,645,0.0203967,3.63584
2,1,Potentiostatic EIS,5.77616,3.63628,-0.00466892,25118.9,0.103526,71.9525,0.0320728,-0.0984325,5.77605,0.0971923,0.0100618,510,0.0203034,3.63628
2,1,Potentiostatic EIS,5.9815,3.63635,-0.00419057,19952.6,0.0845689,68.8209,0.0305535,-0.0788567,6.15134,0.115697,0.00978523,405,0.0202981,3.63635
2,1,Potentiostatic EIS,6.18316,3.63634,-0.00373234,15848.9,0.0694654,65.1332,0.0292109,-0.0630251,6.71282,0.141084,0.00980082,320,0.0201906,3.63634
2,1,Potentiostatic EIS,6.38936,3.63635,-0.00311833,12589.2,0.0578897,60.5645,0.0284495,-0.0504167,7.06573,0.171673,0.0099381,255,0.0202554,3.63635
2,1,Potentiostatic EIS,6.65328,3.63634,-0.00307468,9999.98,0.0492027,55.7892,0.0276637,-0.0406894,3.40581,0.2031,0.00999308,307,0.0307001,3.63634
2,1,Potentiostatic EIS,6.86551,3.63635,-0.0033641,7943.27,0.0424371,50.586,0.0269441,-0.032786,4.17406,0.249989,0.0106088,244,0.0307178,3.63635
2,1,Potentiostatic EIS,7.07688,3.63636,-0.0029391,6309.57,0.0363999,44.9269,0.0257714,-0.0257057,4.77311,0.287827,0.0104769,193,0.0305885,3.63636
2,1,Potentiostatic EIS,7.28949,3.63638,-0.00247487,5011.87,0.0326689,37.2402,0.0260078,-0.0197698,4.8943,0.315669,0.0103126,153,0.0305276,3.63638
2,1,Potentiostatic EIS,7.50132,3.6364,-0.00191705,3981.07,0.0303499,30.5985,0.0261239,-0.0154487,4.68934,0.334534,0.0101531,122,0.0306451,3.6364
2,1,Potentiostatic EIS,7.67099,3.63642,-0.00157267,3162.27,0.0287925,24.6382,0.0261712,-0.0120032,4.37249,0.345211,0.00993951,97,0.0306742,3.63642
2,1,Potentiostatic EIS,7.84204,3.63641,-0.00185071,2511.88,0.0278027,19.3079,0.026239,-0.00919282,3.91773,0.375155,0.0104303,77,0.0306543,3.63641
2,1,Potentiostatic EIS,8.01126,3.63641,-0.00167245,1995.26,0.0272356,14.6503,0.0263501,-0.0068884,3.47586,0.375863,0.0102368,61,0.0305725,3.63641
2,1,Potentiostatic EIS,8.13513,3.63643,-0.00139012,1584.89,0.0269333,10.6833,0.0264665,-0.00499289,3.16172,0.321091,0.00864805,48,0.030286,3.63643
2,1,Potentiostatic EIS,8.26007,3.63644,-0.00123145,1258.92,0.0268523,7.37854,0.0266299,-0.00344848,2.79938,0.372231,0.00999524,38,0.0301845,3.63644
2,1,Potentiostatic EIS,8.38394,3.63645,-0.000766543,999.999,0.0269301,4.63644,0.026842,-0.00217684,2.49644,0.380738,0.0102533,30,0.03,3.63645
2,1,Potentiostatic EIS,8.51144,3.63646,-0.000483303,794.328,0.0270931,2.29487,0.0270713,-0.00108487,2.40346,0.374368,0.0101428,24,0.0302142,3.63646
2,1,Potentiostatic EIS,8.63875,3.63646,-0.000643842,630.956,0.0273651,0.308123,0.0273647,-0.000147163,2.17903,0.367836,0.0100659,19,0.030113,3.63646
2,1,Potentiostatic EIS,8.76339,3.63646,-0.000387787,501.187,0.0276733,-1.44737,0.0276644,0.000698991,2.06795,0.363109,0.0100484,15,0.029929,3.63646
2,1,Potentiostatic EIS,8.84407,3.63647,-0.00040977,398.107,0.0280802,-2.99854,0.0280418,0.00146889,1.98568,0.31331,0.0087978,12,0.0301427,3.63647
2,1,Potentiostatic EIS,8.92355,3.63648,-0.000147343,316.228,0.0285438,-4.37782,0.0284605,0.00217883,1.82711,0.325188,0.00928209,9,0.0284605,3.63648
2,1,Potentiostatic EIS,9.00506,3.63646,-0.000372425,251.189,0.0290889,-5.59339,0.0289504,0.00283524,1.65497,0.329844,0.00959482,8,0.0318486,3.63646
2,1,Potentiostatic EIS,9.09495,3.63648,-0.000127447,199.526,0.0297616,-6.73973,0.0295559,0.0034928,1.48447,0.328743,0.00978392,8,0.0400951,3.63648
2,1,Potentiostatic EIS,9.19586,3.63647,-0.000361738,158.489,0.0304776,-7.70138,0.0302027,0.00408431,1.26246,0.324356,0.00988559,8,0.0504766,3.63647
2,1,Potentiostatic EIS,9.30927,3.63648,-5.81474e-05,125.892,0.0313287,-8.55126,0.0309804,0.00465839,1.09079,0.317255,0.00993919,8,0.0635464,3.63648
2,1,Potentiostatic EIS,9.43854,3.63648,-0.000139764,100,0.0322944,-9.19232,0.0318797,0.005159,0.875408,0.308502,0.00996288,8,0.08,3.63648
2,1,Potentiostatic EIS,9.59356,3.63648,9.69788e-05,79.4327,0.0333245,-9.59963,0.0328579,0.00555728,0.738076,0.299063,0.00996612,8,0.100714,3.63648
2,1,Potentiostatic EIS,9.77172,3.63648,-0.00034155,63.0956,0.0344169,-9.76574,0.0339182,0.0058378,0.593117,0.289599,0.00996708,8,0.126792,3.63648
2,1,Potentiostatic EIS,9.98618,3.63648,0.000121524,50.1186,0.035509,-9.83213,0.0349875,0.00606359,0.504692,0.275613,0.00978676,8,0.159621,3.63648
2,1,Potentiostatic EIS,10.243,3.63646,-0.000671001,39.8107,0.0365779,-9.65091,0.0360602,0.0061321,0.385236,0.268201,0.00981025,8,0.200951,3.63646
2,1,Potentiostatic EIS,10.387,3.63647,-0.00192178,31.6228,0.0375721,-9.49566,0.0370573,0.00619839,0.348452,0.264042,0.00992077,2,0.0632456,3.63647
2,1,Potentiostatic EIS,10.549,3.63648,-0.000676942,25.1188,0.0386784,-9.0778,0.0381939,0.0061025,0.282732,0.250004,0.00966968,2,0.0796217,3.63648
2,1,Potentiostatic EIS,10.7488,3.63648,-0.000645959,19.9526,0.039646,-8.69986,0.0391898,0.00599679,0.283542,0.246419,0.00976952,2,0.100238,3.63648
2,1,Potentiostatic EIS,10.9961,3.63648,-0.000788737,15.8489,0.0406179,-8.26835,0.0401957,0.00584124,0.276342,0.242229,0.00983887,2,0.126192,3.63648
2,1,Potentiostatic EIS,11.3029,3.63647,-0.00081672,12.5892,0.0415755,-7.77766,0.041193,0.00562638,0.235531,0.237778,0.00988579,2,0.158866,3.63647
2,1,Potentiostatic EIS,11.6845,3.63648,-0.000774781,9.99998,0.0424833,-7.22133,0.0421463,0.00534026,0.209192,0.233316,0.00991204,2,0.2,3.63648
2,1,Potentiostatic EIS,12.1597,3.63647,-0.00110225,7.94328,0.0432718,-6.57885,0.0429868,0.00495767,0.216403,0.229441,0.00992833,2,0.251785,3.63647
2,1,Potentiostatic EIS,12.7532,3.63647,-0.00102659,6.30957,0.0439829,-5.89381,0.0437504,0.00451639,0.210467,0.225939,0.00993745,2,0.316979,3.63647
2,1,Potentiostatic EIS,13.4941,3.63647,-0.000964749,5.01186,0.0445736,-5.2454,0.044387,0.004075,0.171303,0.223293,0.00995299,2,0.399053,3.63647
2,1,Potentiostatic EIS,14.4221,3.63648,-0.000905962,3.98106,0.04507,-4.66784,0.0449205,0.00366776,0.169764,0.220916,0.00995671,2,0.502378,3.63648
2,1,Potentiostatic EIS,15.5863,3.63648,-0.00112209,3.16227,0.0454515,-4.10685,0.0453348,0.00325509,0.178906,0.21919,0.00996252,2,0.632458,3.63648
2,1,Potentiostatic EIS,17.0491,3.63648,-0.00122876,2.51188,0.0457668,-3.63952,0.0456745,0.00290522,0.178597,0.21761,0.00995934,2,0.796216,3.63648
2,1,Potentiostatic EIS,18.8872,3.63647,-0.00101759,1.99526,0.046016,-3.2791,0.0459406,0.00263211,0.136903,0.216491,0.00996207,2,1.00238,3.63647
2,1,Potentiostatic EIS,21.1965,3.63648,-0.00132451,1.58489,0.046215,-3.01777,0.0461509,0.00243302,0.176005,0.215566,0.00996238,2,1.26192,3.63648
2,1,Potentiostatic EIS,24.1008,3.63648,-0.001187,1.25892,0.0464016,-2.82068,0.0463453,0.00228343,0.167692,0.214757,0.00996503,2,1.58866,3.63648
2,1,Potentiostatic EIS,27.7523,3.63648,-0.000900802,0.999998,0.046562,-2.71949,0.0465096,0.0022092,0.148462,0.213881,0.00995875,2,2,3.63648
2,1,Potentiostatic EIS,32.3474,3.63648,-0.00134641,0.794327,0.0467133,-2.70593,0.0466612,0.00220533,0.169815,0.213318,0.00996477,2,2.51785,3.63648
2,1,Potentiostatic EIS,38.1272,3.63647,-0.000972371,0.630956,0.0468823,-2.76369,0.0468277,0.00226051,0.169882,0.21265,0.00996949,2,3.16979,3.63647
2,1,Potentiostatic EIS,45.4016,3.63648,-0.000595578,0.501186,0.0470699,-2.90489,0.0470094,0.00238542,0.20357,0.211763,0.00996766,2,3.99054,3.63648
2,1,Potentiostatic EIS,52.6914,3.63648,-0.000684459,0.5,0.0471754,-2.91067,0.0471145,0.00239551,0.217997,0.211345,0.00997031,2,4,3.63648