Folder: feature-extraction-paper-2024/Data/P180/P180_04/EIS_08_P180_04_1

Note: README.md
# feature-extraction-paper-2024
Repository for code used and referenced in 2024 feature extraction paper

File: 2_EIS_08_P180_04_1 20230828 113952.csv
Step number,Repeats,Step name,Elapsed Time  (s),DC Working Electrode (V),DC Current (A),Frequency (Hz),|Z| (Ohms),Phase (deg),Z' (Ohms),-Z" (Ohms),THD (%),Amplitude (A),Amplitude (V),No of Cycles,Duration of Each Frequency (s),IR Compensated DC Working Electrode (V)
2,1,Potentiostatic EIS,0,3.62614,-0.0134896,1000000,3.77024,88.68,0.0868519,-3.76923,1.23108,0.00263894,0.00994936,1430,0.00143,3.62614
2,1,Potentiostatic EIS,0.230186,3.62608,-0.0142135,794328,2.99174,88.0697,0.100774,-2.99004,1.36195,0.00331848,0.00992799,1445,0.00181915,3.62608
2,1,Potentiostatic EIS,0.473682,3.62606,-0.014226,630957.375,2.38817,87.6147,0.0993923,-2.3861,1.2179,0.00415137,0.00991421,1355,0.00214753,3.62606
2,1,Potentiostatic EIS,0.726055,3.62605,-0.0147666,501187.25,1.90459,87.7632,0.0743367,-1.90314,1.25517,0.00516095,0.00982928,1385,0.00276344,3.62605
2,1,Potentiostatic EIS,1.01064,3.626,-0.0156381,398107,1.52053,87.0772,0.0775334,-1.51856,1.33691,0.00654984,0.00995928,1400,0.00351664,3.626
2,1,Potentiostatic EIS,1.31005,3.62596,-0.0159028,316228,1.209,86.8113,0.0672499,-1.20713,1.46098,0.00821543,0.00993247,1370,0.00433232,3.62596
2,1,Potentiostatic EIS,1.64602,3.62594,-0.0163318,251189,0.971695,86.0346,0.0671962,-0.969368,1.35995,0.0102762,0.00998538,1340,0.00533464,3.62594
2,1,Potentiostatic EIS,2.09711,3.62587,-0.0173325,199526,0.772576,85.9495,0.0545715,-0.770646,1.47436,0.012784,0.0098767,1355,0.00679109,3.62587
2,1,Potentiostatic EIS,2.55922,3.62584,-0.0175577,158489,0.622128,85.1973,0.0520874,-0.619944,1.47241,0.0160355,0.00997614,1360,0.00858102,3.62584
2,1,Potentiostatic EIS,3.08537,3.62577,-0.018728,125893,0.498849,84.5498,0.0473809,-0.496594,1.46575,0.0200362,0.00999506,1370,0.0108823,3.62577
2,1,Potentiostatic EIS,3.86527,3.6257,-0.0194829,100000,0.397178,83.8409,0.0426133,-0.394885,1.8254,0.025113,0.00997434,1370,0.0137,3.6257
2,1,Potentiostatic EIS,4.53532,3.62565,-0.0199047,79432.8,0.320716,82.7795,0.0403104,-0.318173,2.01064,0.0311884,0.0100026,1365,0.0171843,3.62565
2,1,Potentiostatic EIS,4.78868,3.62555,-0.0212905,63095.7,0.256044,81.884,0.0361477,-0.253479,1.98174,0.0390106,0.00998844,1290,0.0204451,3.62555
2,1,Potentiostatic EIS,5.04515,3.62555,-0.0220918,50118.75,0.206203,80.5435,0.0338788,-0.203401,2.06079,0.0484658,0.00999512,1025,0.0204514,3.62555
2,1,Potentiostatic EIS,5.29937,3.62557,-0.0226384,39810.7,0.166886,78.8763,0.032197,-0.163751,1.99632,0.0597101,0.00996482,815,0.0204719,3.62557
2,1,Potentiostatic EIS,5.65044,3.62548,-0.0222247,31622.8,0.135311,76.7705,0.030966,-0.13172,2.09425,0.0739566,0.0100072,645,0.0203967,3.62548
2,1,Potentiostatic EIS,5.98361,3.62625,-0.00446312,25118.9,0.110056,74.5379,0.029341,-0.106073,5.59979,0.0912759,0.0100455,510,0.0203034,3.62625
2,1,Potentiostatic EIS,6.19793,3.62629,-0.00388303,19952.6,0.0888575,71.9366,0.027552,-0.0844781,6.15619,0.110893,0.00985362,405,0.0202981,3.62629
2,1,Potentiostatic EIS,6.41087,3.62637,-0.00330659,15848.9,0.0723994,68.7957,0.0261865,-0.0674978,6.90451,0.136274,0.00986631,320,0.0201906,3.62637
2,1,Potentiostatic EIS,6.61639,3.62634,-0.00313235,12589.2,0.0599177,65.002,0.0253204,-0.0543048,7.31866,0.166724,0.00998973,255,0.0202554,3.62634
2,1,Potentiostatic EIS,6.92864,3.62629,-0.00299813,9999.98,0.0501782,60.5558,0.0246664,-0.0436969,3.55889,0.199283,0.00999968,307,0.0307001,3.62629
2,1,Potentiostatic EIS,7.13955,3.6263,-0.00289764,7943.27,0.0425676,55.8274,0.0239097,-0.0352183,4.41333,0.248779,0.01059,244,0.0307178,3.6263
2,1,Potentiostatic EIS,7.35102,3.62632,-0.00237235,6309.57,0.0357383,50.534,0.022716,-0.0275901,5.10551,0.293244,0.0104801,193,0.0305885,3.62632
2,1,Potentiostatic EIS,7.56076,3.62633,-0.00233169,5011.87,0.0313311,42.8777,0.0229597,-0.0213188,5.28606,0.329745,0.0103313,153,0.0305276,3.62633
2,1,Potentiostatic EIS,7.76996,3.62636,-0.00180369,3981.07,0.0285059,35.8335,0.0231103,-0.0166882,5.12338,0.35778,0.0101988,122,0.0306451,3.62636
2,1,Potentiostatic EIS,7.93829,3.62636,-0.00142563,3162.27,0.0265307,29.3096,0.0231344,-0.0129876,4.82826,0.347744,0.00922589,97,0.0306742,3.62636
2,1,Potentiostatic EIS,8.10692,3.62636,-0.00139018,2511.88,0.0252532,23.2631,0.0232002,-0.00997387,4.30668,0.415093,0.0104824,77,0.0306543,3.62636
2,1,Potentiostatic EIS,8.27579,3.62636,-0.00153771,1995.26,0.0244903,17.9049,0.0233042,-0.00752922,3.78007,0.420466,0.0102973,61,0.0305725,3.62636
2,1,Potentiostatic EIS,8.44208,3.62639,-0.00085578,1584.89,0.0240755,13.2802,0.0234317,-0.00553045,3.27722,0.420748,0.0101297,48,0.030286,3.62639
2,1,Potentiostatic EIS,8.56471,3.62638,-0.0008499,1258.92,0.0239109,9.34428,0.0235937,-0.00388233,3.0324,0.384583,0.00919574,38,0.0301845,3.62638
2,1,Potentiostatic EIS,8.68866,3.62639,-0.000671684,999.999,0.0239288,6.07821,0.0237943,-0.00253372,2.52893,0.431004,0.0103134,30,0.03,3.62639
2,1,Potentiostatic EIS,8.81278,3.62639,-0.000540563,794.328,0.0240477,3.28652,0.0240082,-0.00137864,2.34743,0.423395,0.0101817,24,0.0302142,3.62639
2,1,Potentiostatic EIS,8.93568,3.62639,-0.000677123,630.956,0.0242898,0.941336,0.0242866,-0.00039905,2.21243,0.415944,0.0101032,19,0.030113,3.62639
2,1,Potentiostatic EIS,9.0591,3.6264,-0.000180991,501.187,0.0245813,-1.11466,0.0245767,0.000478189,2.05562,0.408875,0.0100507,15,0.029929,3.6264
2,1,Potentiostatic EIS,9.13875,3.62641,-0.000339262,398.107,0.0249556,-2.88796,0.0249239,0.00125734,2.02068,0.345333,0.00861799,12,0.0301427,3.62641
2,1,Potentiostatic EIS,9.21818,3.62641,-1.92162e-05,316.228,0.0254084,-4.50771,0.0253299,0.00199693,1.86515,0.361063,0.00917406,9,0.0284605,3.62641
2,1,Potentiostatic EIS,9.29969,3.62642,0.000149339,251.189,0.0259573,-5.96628,0.0258167,0.00269809,1.6844,0.367162,0.00953055,8,0.0318486,3.62642
2,1,Potentiostatic EIS,9.38866,3.62642,0.000138226,199.526,0.0266233,-7.18126,0.0264144,0.00332814,1.52875,0.36654,0.00975851,8,0.0400951,3.62642
2,1,Potentiostatic EIS,9.4884,3.62641,0.000238885,158.489,0.0273418,-8.30004,0.0270554,0.00394697,1.37197,0.361246,0.00987711,8,0.0504766,3.62641
2,1,Potentiostatic EIS,9.60224,3.6264,0.000357172,125.892,0.0281804,-9.24087,0.0278146,0.00452535,1.15664,0.352836,0.00994304,8,0.0635464,3.6264
2,1,Potentiostatic EIS,9.7333,3.62641,0.00051575,100,0.0291284,-9.98381,0.0286873,0.00504998,0.941751,0.34221,0.00996802,8,0.08,3.62641
2,1,Potentiostatic EIS,9.88536,3.62641,0.000225544,79.4327,0.0301551,-10.4259,0.0296573,0.00545698,0.784602,0.330696,0.00997217,8,0.100714,3.62641
2,1,Potentiostatic EIS,10.0657,3.62641,-0.000128987,63.0956,0.0312394,-10.6319,0.0307031,0.00576364,0.648247,0.319127,0.00996935,8,0.126792,3.62641
2,1,Potentiostatic EIS,10.2799,3.62641,0.000534407,50.1186,0.0323296,-10.7271,0.0317647,0.00601755,0.512884,0.303647,0.00981678,8,0.159621,3.62641
2,1,Potentiostatic EIS,10.5392,3.6264,-0.000311301,39.8107,0.0334017,-10.5291,0.0328393,0.00610364,0.442473,0.294352,0.00983185,8,0.200951,3.6264
2,1,Potentiostatic EIS,10.6816,3.62641,-0.00181328,31.6228,0.0344144,-10.3396,0.0338555,0.00617679,0.710084,0.288292,0.00992156,2,0.0632456,3.62641
2,1,Potentiostatic EIS,10.8438,3.62641,-0.000706073,25.1188,0.0355012,-9.86812,0.034976,0.00608423,0.756835,0.272233,0.00966443,2,0.0796217,3.62641
2,1,Potentiostatic EIS,11.0434,3.6264,-0.000784792,19.9526,0.0365069,-9.42272,0.0360144,0.00597682,0.731697,0.267679,0.00977218,2,0.100238,3.6264
2,1,Potentiostatic EIS,11.2905,3.62641,-0.00062046,15.8489,0.0374864,-8.9035,0.0370347,0.00580179,0.771702,0.262431,0.00983756,2,0.126192,3.62641
2,1,Potentiostatic EIS,11.5971,3.62642,-0.000477728,12.5892,0.03842,-8.30712,0.0380168,0.00555088,0.532831,0.257211,0.00988208,2,0.158866,3.62642
2,1,Potentiostatic EIS,11.9783,3.62641,-0.000699573,9.99998,0.0393173,-7.65735,0.0389667,0.00523898,0.184087,0.25206,0.00991033,2,0.2,3.62641
2,1,Potentiostatic EIS,12.4532,3.62641,-0.000785134,7.94328,0.0400871,-6.93032,0.0397942,0.00483699,0.220201,0.247809,0.00993396,2,0.251785,3.62641
2,1,Potentiostatic EIS,13.0469,3.62641,-0.000906897,6.30957,0.0407445,-6.21952,0.0405047,0.00441419,0.187587,0.243879,0.00993676,2,0.316979,3.62641
2,1,Potentiostatic EIS,13.7867,3.62642,-0.000685053,5.01186,0.0413099,-5.48353,0.0411208,0.00394756,0.184521,0.240766,0.00994604,2,0.399053,3.62642
2,1,Potentiostatic EIS,14.7137,3.62641,-0.000848567,3.98106,0.0417612,-4.83828,0.0416124,0.00352229,0.181656,0.238204,0.00994768,2,0.502378,3.62641
2,1,Potentiostatic EIS,15.8787,3.62641,-0.00116083,3.16227,0.042119,-4.27448,0.0420019,0.00313932,0.157864,0.236254,0.00995079,2,0.632458,3.62641
2,1,Potentiostatic EIS,17.3414,3.62641,-0.000926421,2.51188,0.0424148,-3.81147,0.042321,0.00281947,0.158692,0.234854,0.00996127,2,0.796216,3.62641
2,1,Potentiostatic EIS,19.1793,3.6264,-0.000953382,1.99526,0.0426591,-3.45836,0.0425815,0.00257333,0.169007,0.23331,0.0099528,2,1.00238,3.6264
2,1,Potentiostatic EIS,21.4894,3.6264,-0.00125201,1.58489,0.0428646,-3.14072,0.0428002,0.00234848,0.178131,0.232274,0.00995632,2,1.26192,3.6264
2,1,Potentiostatic EIS,24.3941,3.62641,-0.000883352,1.25892,0.0430439,-2.9915,0.0429852,0.00224636,0.159615,0.231555,0.00996703,2,1.58866,3.62641
2,1,Potentiostatic EIS,28.0464,3.62641,-0.000727016,0.999998,0.0431938,-2.87829,0.0431393,0.00216896,0.171714,0.230504,0.00995635,2,2,3.62641
2,1,Potentiostatic EIS,32.6418,3.62641,-0.00122259,0.794327,0.043389,-2.86262,0.0433348,0.0021669,0.149702,0.229599,0.00996204,2,2.51785,3.62641
2,1,Potentiostatic EIS,38.4207,3.62641,-0.000634308,0.630956,0.0435437,-2.96858,0.0434852,0.00225505,0.144932,0.228681,0.00995761,2,3.16979,3.62641
2,1,Potentiostatic EIS,45.6952,3.62641,-0.000457851,0.501186,0.043712,-3.12934,0.0436468,0.00238624,0.150218,0.227908,0.00996233,2,3.99054,3.62641
2,1,Potentiostatic EIS,52.985,3.6264,-0.000582094,0.5,0.0437051,-3.1421,0.0436394,0.00239559,0.158049,0.227947,0.00996246,2,4,3.6264