Folder: feature-extraction-paper-2024/Data/P180/P180_04/EIS_06_P180_04_2

Note: README.md
# feature-extraction-paper-2024
Repository for code used and referenced in 2024 feature extraction paper

File: 2_EIS_06_P180_04_2 20230824 145523.csv
Step number,Repeats,Step name,Elapsed Time  (s),DC Working Electrode (V),DC Current (A),Frequency (Hz),|Z| (Ohms),Phase (deg),Z' (Ohms),-Z" (Ohms),THD (%),Amplitude (A),Amplitude (V),No of Cycles,Duration of Each Frequency (s),IR Compensated DC Working Electrode (V)
2,1,Potentiostatic EIS,0,3.56966,-0.00868794,1000000,1.96041,86.7517,0.111082,-1.95726,0.987917,0.00510591,0.0100085,1430,0.00143,3.56966
2,1,Potentiostatic EIS,0.244867,3.56957,-0.0103363,794328,1.57348,86.3391,0.100468,-1.57027,1.20283,0.00638245,0.0100428,1445,0.00181915,3.56957
2,1,Potentiostatic EIS,0.503847,3.56951,-0.0114108,630957.375,1.25722,85.8363,0.0912816,-1.2539,1.11273,0.00793202,0.00997234,1355,0.00214753,3.56951
2,1,Potentiostatic EIS,0.779622,3.56945,-0.0126866,501187.25,1.00931,85.7495,0.0748076,-1.00653,1.0984,0.0099166,0.0100089,1385,0.00276344,3.56945
2,1,Potentiostatic EIS,1.06045,3.5694,-0.0137986,398107,0.810152,84.7539,0.0740748,-0.806759,1.14911,0.0120052,0.00972571,1400,0.00351664,3.5694
2,1,Potentiostatic EIS,1.39329,3.56932,-0.0150579,316228,0.646161,84.3444,0.0636783,-0.643016,1.28417,0.0153892,0.00994393,1370,0.00433232,3.56932
2,1,Potentiostatic EIS,1.75952,3.56925,-0.0164914,251189,0.519962,83.3161,0.060519,-0.516428,1.49737,0.0191611,0.00996307,1340,0.00533464,3.56925
2,1,Potentiostatic EIS,2.33883,3.56915,-0.0178819,199526,0.416219,82.8685,0.0516723,-0.412999,1.52918,0.0238709,0.00993553,1355,0.00679109,3.56915
2,1,Potentiostatic EIS,2.80356,3.56905,-0.019664,158489,0.335818,81.7411,0.0482393,-0.332335,1.63008,0.0290419,0.00975296,1360,0.00858102,3.56905
2,1,Potentiostatic EIS,3.37728,3.56893,-0.0213936,125893,0.271455,80.5036,0.0447861,-0.267735,1.93674,0.0367506,0.00997614,1370,0.0108823,3.56893
2,1,Potentiostatic EIS,4.06452,3.56882,-0.0235491,100000,0.218168,79.2024,0.0408714,-0.214305,1.88558,0.045736,0.00997817,1370,0.0137,3.56882
2,1,Potentiostatic EIS,4.994,3.56872,-0.0247828,79432.8,0.176752,77.3425,0.0387304,-0.172457,2.49306,0.0565255,0.00999098,1365,0.0171843,3.56872
2,1,Potentiostatic EIS,5.25588,3.56859,-0.0268302,63095.7,0.142798,75.4006,0.0359935,-0.138187,2.08704,0.0699612,0.00999029,1290,0.0204451,3.56859
2,1,Potentiostatic EIS,5.62058,3.56929,-0.0114934,50118.75,0.116487,72.9316,0.0341905,-0.111356,4.62171,0.0853482,0.00994196,1025,0.0204514,3.56929
2,1,Potentiostatic EIS,5.8457,3.56931,-0.0115894,39810.7,0.0953804,70.1168,0.0324393,-0.0896946,5.31892,0.105384,0.0100514,815,0.0204719,3.56931
2,1,Potentiostatic EIS,6.08098,3.56931,-0.0115871,31622.8,0.079066,66.4471,0.0315945,-0.0724792,5.86298,0.127908,0.0101134,645,0.0203967,3.56931
2,1,Potentiostatic EIS,6.30389,3.56966,-0.00432836,25118.9,0.0656298,62.424,0.0303816,-0.0581741,6.42367,0.154239,0.0101225,510,0.0203034,3.56966
2,1,Potentiostatic EIS,6.52997,3.56971,-0.00275231,19952.6,0.0549567,58.0156,0.02911,-0.0466139,6.61362,0.183595,0.0100898,405,0.0202981,3.56971
2,1,Potentiostatic EIS,6.76384,3.56975,-0.00231169,15848.9,0.0468004,52.9202,0.0282172,-0.0373372,6.54514,0.214479,0.0100377,320,0.0201906,3.56975
2,1,Potentiostatic EIS,6.99677,3.56977,-0.00173541,12589.2,0.0408498,47.1366,0.0277882,-0.029942,6.50879,0.245031,0.0100094,255,0.0202554,3.56977
2,1,Potentiostatic EIS,7.35404,3.56976,-8.72018e-05,9999.98,0.0364511,41.3264,0.0273733,-0.0240704,2.90864,0.274407,0.0100024,307,0.0307001,3.56976
2,1,Potentiostatic EIS,7.56574,3.56977,-1.45191e-05,7943.27,0.0331383,35.9418,0.0268292,-0.019451,3.46763,0.286196,0.00948404,244,0.0307178,3.56977
2,1,Potentiostatic EIS,7.78056,3.56976,-0.000435565,6309.57,0.0298975,30.1252,0.0258593,-0.0150053,3.77899,0.35519,0.0106193,193,0.0305885,3.56976
2,1,Potentiostatic EIS,7.99263,3.56983,0.000569035,5011.87,0.0285222,23.0706,0.0262411,-0.0111769,3.80589,0.363615,0.0103711,153,0.0305276,3.56983
2,1,Potentiostatic EIS,8.20382,3.56986,0.00133981,3981.07,0.0278253,17.9885,0.0264652,-0.0085932,3.6246,0.365214,0.0101622,122,0.0306451,3.56986
2,1,Potentiostatic EIS,8.3708,3.56987,0.00160485,3162.27,0.0274135,13.7851,0.0266239,-0.00653208,3.41397,0.366163,0.0100378,97,0.0306742,3.56987
2,1,Potentiostatic EIS,8.53991,3.56985,0.00138284,2511.88,0.0271845,10.2674,0.0267492,-0.00484542,3.10796,0.382327,0.0103934,77,0.0306543,3.56985
2,1,Potentiostatic EIS,8.70802,3.56989,0.00192363,1995.26,0.0271113,7.27097,0.0268933,-0.00343127,2.82381,0.376308,0.0102022,61,0.0305725,3.56989
2,1,Potentiostatic EIS,8.83091,3.56988,0.00175605,1584.89,0.027146,4.8176,0.0270501,-0.00227983,2.8022,0.336085,0.00912338,48,0.030286,3.56988
2,1,Potentiostatic EIS,8.95376,3.5699,0.00207116,1258.92,0.0272619,2.81771,0.0272289,-0.00134015,2.49101,0.380927,0.0103848,38,0.0301845,3.5699
2,1,Potentiostatic EIS,9.07742,3.56988,0.00162027,999.999,0.0274344,1.09654,0.0274294,-0.000525012,2.3653,0.372417,0.010217,30,0.03,3.56988
2,1,Potentiostatic EIS,9.20026,3.56989,0.00201468,794.328,0.0276768,-0.396717,0.0276761,0.000191633,2.2888,0.365818,0.0101247,24,0.0302142,3.56989
2,1,Potentiostatic EIS,9.32336,3.56989,0.00217157,630.956,0.0279365,-1.71369,0.027924,0.000835442,2.20813,0.35982,0.0100521,19,0.030113,3.56989
2,1,Potentiostatic EIS,9.44735,3.56991,0.00283423,501.187,0.0282344,-2.87158,0.028199,0.00141448,2.09548,0.355159,0.0100277,15,0.029929,3.56991
2,1,Potentiostatic EIS,9.52725,3.56991,0.00260257,398.107,0.0286151,-3.94255,0.0285474,0.00196747,1.98752,0.310918,0.00889697,12,0.0301427,3.56991
2,1,Potentiostatic EIS,9.60608,3.56991,0.00275883,316.228,0.0290483,-4.95339,0.0289398,0.00250818,1.80403,0.321555,0.00934062,9,0.0284605,3.56991
2,1,Potentiostatic EIS,9.68732,3.56991,0.00270295,251.189,0.029563,-5.96568,0.0294029,0.00307257,1.63606,0.325385,0.00961936,8,0.0318486,3.56991
2,1,Potentiostatic EIS,9.77724,3.56992,0.00283003,199.526,0.0301616,-6.84936,0.0299464,0.00359706,1.44495,0.324632,0.00979144,8,0.0400951,3.56992
2,1,Potentiostatic EIS,9.8787,3.56991,0.0024544,158.489,0.0308463,-7.6724,0.0305701,0.00411825,1.21327,0.320605,0.00988949,8,0.0504766,3.56991
2,1,Potentiostatic EIS,9.9917,3.56991,0.00264559,125.892,0.0316597,-8.42699,0.0313178,0.00463969,1.03645,0.314126,0.00994513,8,0.0635464,3.56991
2,1,Potentiostatic EIS,10.1212,3.56991,0.00259446,100,0.0325469,-9.01773,0.0321447,0.00510141,0.862116,0.306071,0.00996168,8,0.08,3.56991
2,1,Potentiostatic EIS,10.2729,3.56991,0.00267782,79.4327,0.0335308,-9.39732,0.0330808,0.0054749,0.692906,0.297252,0.00996709,8,0.100714,3.56991
2,1,Potentiostatic EIS,10.4528,3.56992,0.00254876,63.0956,0.0345738,-9.58163,0.0340915,0.0057549,0.566966,0.288241,0.00996558,8,0.126792,3.56992
2,1,Potentiostatic EIS,10.6687,3.56992,0.00317689,50.1186,0.0356329,-9.66827,0.0351268,0.00598432,0.47961,0.274709,0.0097887,8,0.159621,3.56992
2,1,Potentiostatic EIS,10.9279,3.56989,0.00206213,39.8107,0.0367051,-9.50528,0.0362011,0.00606142,0.376798,0.267425,0.00981586,8,0.200951,3.56989
2,1,Potentiostatic EIS,11.0713,3.5699,0.000844762,31.6228,0.037691,-9.36497,0.0371886,0.00613318,0.326022,0.263038,0.00991428,2,0.0632456,3.5699
2,1,Potentiostatic EIS,11.2336,3.56991,0.00189507,25.1188,0.038772,-8.94857,0.0383001,0.00603089,0.265046,0.249282,0.00966505,2,0.0796217,3.56991
2,1,Potentiostatic EIS,11.4333,3.56992,0.00218653,19.9526,0.0397477,-8.58913,0.0393019,0.00593623,0.233013,0.245818,0.00977068,2,0.100238,3.56992
2,1,Potentiostatic EIS,11.6804,3.56992,0.002007,15.8489,0.040732,-8.14076,0.0403216,0.00576788,0.232303,0.241591,0.00984045,2,0.126192,3.56992
2,1,Potentiostatic EIS,11.9868,3.56991,0.00162594,12.5892,0.0416594,-7.64994,0.0412887,0.00554572,0.208635,0.237145,0.00987934,2,0.158866,3.56991
2,1,Potentiostatic EIS,12.3681,3.56992,0.00177207,9.99998,0.0425327,-7.09713,0.0422068,0.00525499,0.193386,0.232992,0.00990977,2,0.2,3.56992
2,1,Potentiostatic EIS,12.8431,3.56992,0.0016033,7.94328,0.0433161,-6.4528,0.0430416,0.00486806,0.202868,0.229274,0.00993126,2,0.251785,3.56992
2,1,Potentiostatic EIS,13.4365,3.56992,0.00146251,6.30957,0.0440174,-5.82661,0.04379,0.00446857,0.181762,0.225796,0.00993895,2,0.316979,3.56992
2,1,Potentiostatic EIS,14.1771,3.56992,0.00146591,5.01186,0.0445945,-5.1789,0.0444125,0.00402536,0.19755,0.22315,0.00995126,2,0.399053,3.56992
2,1,Potentiostatic EIS,15.1049,3.56992,0.00146663,3.98106,0.045056,-4.59844,0.044911,0.00361222,0.179608,0.220917,0.00995363,2,0.502378,3.56992
2,1,Potentiostatic EIS,16.2701,3.56991,0.00100327,3.16227,0.0454584,-4.06689,0.0453439,0.00322396,0.175708,0.218946,0.00995294,2,0.632458,3.56991
2,1,Potentiostatic EIS,17.7334,3.56991,0.000858369,2.51188,0.0457832,-3.65337,0.0456901,0.00291731,0.17141,0.217535,0.00995943,2,0.796216,3.56991
2,1,Potentiostatic EIS,19.5722,3.56992,0.000923457,1.99526,0.0460325,-3.27803,0.0459572,0.0026322,0.187344,0.216359,0.00995958,2,1.00238,3.56992
2,1,Potentiostatic EIS,21.8826,3.56991,0.000414928,1.58489,0.0462459,-3.03236,0.0461812,0.00244641,0.160577,0.215518,0.00996682,2,1.26192,3.56991
2,1,Potentiostatic EIS,24.7875,3.56991,0.000344022,1.25892,0.046451,-2.83843,0.046394,0.00230024,0.14909,0.21463,0.00996977,2,1.58866,3.56991
2,1,Potentiostatic EIS,28.4391,3.56992,0.000519249,0.999998,0.046597,-2.79582,0.0465416,0.00227286,0.156532,0.213812,0.009963,2,2,3.56992
2,1,Potentiostatic EIS,33.034,3.56992,-0.000233881,0.794327,0.0467604,-2.75309,0.0467064,0.002246,0.177403,0.213142,0.00996659,2,2.51785,3.56992
2,1,Potentiostatic EIS,38.8142,3.56992,-1.10318e-05,0.630956,0.0469497,-2.81602,0.046893,0.00230659,0.169839,0.212432,0.00997363,2,3.16979,3.56992
2,1,Potentiostatic EIS,46.0883,3.56992,4.99835e-05,0.501186,0.0471743,-2.9833,0.0471103,0.00245517,0.142503,0.211343,0.00996996,2,3.99054,3.56992
2,1,Potentiostatic EIS,53.3788,3.56991,-0.000208801,0.5,0.0471634,-3.01193,0.0470982,0.00247815,0.143993,0.211408,0.00997073,2,4,3.56991