Folder: feature-extraction-paper-2024/Data/P180/P180_02/EIS_06_P180_02_3

Note: README.md
# feature-extraction-paper-2024
Repository for code used and referenced in 2024 feature extraction paper

File: 2_EIS_06_P180_02_3 20230824 135617.csv
Step number,Repeats,Step name,Elapsed Time  (s),DC Working Electrode (V),DC Current (A),Frequency (Hz),|Z| (Ohms),Phase (deg),Z' (Ohms),-Z" (Ohms),THD (%),Amplitude (A),Amplitude (V),No of Cycles,Duration of Each Frequency (s),IR Compensated DC Working Electrode (V)
2,1,Potentiostatic EIS,0,3.42012,-0.00764371,1000000,2.50355,87.9513,0.0895004,-2.50194,0.953126,0.00398426,0.00997491,1430,0.00143,3.42012
2,1,Potentiostatic EIS,0.249144,3.42005,-0.00926551,794328,1.99851,87.4997,0.087184,-1.99661,1.24194,0.0049732,0.00993912,1445,0.00181915,3.42005
2,1,Potentiostatic EIS,0.509367,3.42001,-0.0101417,630957.375,1.599,87.1051,0.080755,-1.59696,1.0557,0.00623169,0.00996447,1355,0.00214753,3.42001
2,1,Potentiostatic EIS,0.776311,3.41996,-0.0112896,501187.25,1.27576,87.1105,0.0643101,-1.27413,1.19691,0.00780504,0.00995738,1385,0.00276344,3.41996
2,1,Potentiostatic EIS,1.05793,3.41989,-0.0123252,398107,1.02164,86.4373,0.0634855,-1.01966,1.01198,0.00973264,0.00994324,1400,0.00351664,3.41989
2,1,Potentiostatic EIS,1.44192,3.41987,-0.0130524,316228,0.811871,86.0339,0.0561542,-0.809927,1.19792,0.0120367,0.00977135,1370,0.00433232,3.41987
2,1,Potentiostatic EIS,1.8098,3.41981,-0.0141114,251189,0.652998,85.3004,0.0535012,-0.650802,1.21515,0.0152802,0.00997797,1340,0.00533464,3.41981
2,1,Potentiostatic EIS,2.22254,3.41973,-0.0156261,199526,0.519298,85.1596,0.0438185,-0.517446,1.45083,0.019125,0.00993158,1355,0.00679109,3.41973
2,1,Potentiostatic EIS,2.88063,3.41964,-0.0166756,158489,0.417845,84.0896,0.043027,-0.415624,1.48649,0.0238491,0.00996522,1360,0.00858102,3.41964
2,1,Potentiostatic EIS,3.41198,3.41957,-0.0183843,125893,0.336687,83.4239,0.0385582,-0.334471,1.70323,0.0293694,0.00988821,1370,0.0108823,3.41957
2,1,Potentiostatic EIS,4.08923,3.41946,-0.0201745,100000,0.269119,82.5509,0.0348899,-0.266848,1.82624,0.0370699,0.00997621,1370,0.0137,3.41946
2,1,Potentiostatic EIS,4.76467,3.4194,-0.0210568,79432.8,0.216904,81.2017,0.0331771,-0.214352,2.33745,0.0451569,0.0097944,1365,0.0171843,3.4194
2,1,Potentiostatic EIS,5.14208,3.4193,-0.023709,63095.7,0.174009,79.956,0.0303477,-0.171342,1.97532,0.0572764,0.00996663,1290,0.0204451,3.4193
2,1,Potentiostatic EIS,5.38826,3.41923,-0.023392,50118.75,0.140594,78.3185,0.0284662,-0.137682,1.97308,0.0708382,0.0099596,1025,0.0204514,3.41923
2,1,Potentiostatic EIS,5.75422,3.41982,-0.00871319,39810.7,0.113754,76.3923,0.0267634,-0.110561,4.90057,0.0875872,0.00996344,815,0.0204719,3.41982
2,1,Potentiostatic EIS,5.97876,3.41981,-0.00854905,31622.8,0.093055,73.8783,0.0258394,-0.0893955,5.57698,0.108374,0.0100847,645,0.0203967,3.41981
2,1,Potentiostatic EIS,6.20092,3.42016,-0.00016026,25118.9,0.0757214,71.0157,0.0246329,-0.0716027,6.27092,0.133443,0.0101047,510,0.0203034,3.42016
2,1,Potentiostatic EIS,6.42468,3.4202,0.000593079,19952.6,0.0618964,67.8507,0.0233362,-0.0573287,6.99092,0.163103,0.0100954,405,0.0202981,3.4202
2,1,Potentiostatic EIS,6.64525,3.42025,0.00152333,15848.9,0.050895,63.9345,0.0223632,-0.0457186,7.29565,0.19745,0.0100493,320,0.0201906,3.42025
2,1,Potentiostatic EIS,6.86773,3.42024,0.00194238,12589.2,0.0427411,59.1844,0.0218953,-0.036707,7.2742,0.233833,0.00999418,255,0.0202554,3.42024
2,1,Potentiostatic EIS,7.217,3.42032,0.00247644,9999.98,0.036465,54.0231,0.0214217,-0.0295094,3.35701,0.274296,0.0100022,307,0.0307001,3.42032
2,1,Potentiostatic EIS,7.42906,3.42036,0.00312264,7943.27,0.0316442,48.7591,0.0208607,-0.0237947,4.14179,0.280907,0.00888907,244,0.0307178,3.42036
2,1,Potentiostatic EIS,7.64136,3.42036,0.00262958,6309.57,0.0271308,43.0103,0.0198389,-0.0185067,4.59458,0.363643,0.00986594,193,0.0305885,3.42036
2,1,Potentiostatic EIS,7.8529,3.42037,0.00265249,5011.87,0.0245572,34.6866,0.0201928,-0.0139752,4.58983,0.426396,0.0104711,153,0.0305276,3.42037
2,1,Potentiostatic EIS,8.0669,3.42039,0.00350388,3981.07,0.0231337,27.9786,0.0204299,-0.010853,4.39183,0.445728,0.0103113,122,0.0306451,3.42039
2,1,Potentiostatic EIS,8.27915,3.42042,0.00443762,3162.27,0.0221678,22.1224,0.0205358,-0.0083481,4.0433,0.457241,0.010136,97,0.0306742,3.42042
2,1,Potentiostatic EIS,8.44853,3.42043,0.00456681,2511.88,0.0215875,16.9757,0.0206469,-0.00630284,3.64054,0.460439,0.00993974,77,0.0306543,3.42043
2,1,Potentiostatic EIS,8.6166,3.42043,0.00395167,1995.26,0.0213007,12.5464,0.020792,-0.00462716,3.18192,0.486057,0.0103533,61,0.0305725,3.42043
2,1,Potentiostatic EIS,8.785,3.42045,0.00461714,1584.89,0.0211812,8.81066,0.0209313,-0.00324432,2.83649,0.480594,0.0101796,48,0.030286,3.42045
2,1,Potentiostatic EIS,8.9104,3.42045,0.00453268,1258.92,0.0212109,5.73923,0.0211046,-0.00212111,2.68544,0.407054,0.00863401,38,0.0301845,3.42045
2,1,Potentiostatic EIS,9.03371,3.42047,0.00471592,999.999,0.0213317,3.16558,0.0212991,-0.00117797,2.33992,0.485014,0.0103462,30,0.03,3.42047
2,1,Potentiostatic EIS,9.15821,3.42047,0.00480132,794.328,0.0215261,0.959828,0.0215231,-0.000360591,2.2373,0.473523,0.0101931,24,0.0302142,3.42047
2,1,Potentiostatic EIS,9.28226,3.42048,0.00517584,630.956,0.0217789,-0.959183,0.0217758,0.000364581,2.11151,0.463631,0.0100974,19,0.030113,3.42048
2,1,Potentiostatic EIS,9.40612,3.42047,0.00529592,501.187,0.0220855,-2.59285,0.0220629,0.000999113,2.03868,0.455697,0.0100643,15,0.029929,3.42047
2,1,Potentiostatic EIS,9.48602,3.42048,0.00507632,398.107,0.0224554,-4.07828,0.0223986,0.00159702,2.02507,0.378555,0.00850061,12,0.0301427,3.42048
2,1,Potentiostatic EIS,9.56675,3.42048,0.00537616,316.228,0.0228803,-5.38678,0.0227793,0.00214798,1.85784,0.397308,0.00909055,9,0.0284605,3.42048
2,1,Potentiostatic EIS,9.64768,3.42049,0.00526532,251.189,0.0233939,-6.58599,0.0232395,0.00268314,1.69656,0.405463,0.00948535,8,0.0318486,3.42049
2,1,Potentiostatic EIS,9.73703,3.42048,0.00553299,199.526,0.0239863,-7.59963,0.0237756,0.00317219,1.55089,0.405386,0.00972371,8,0.0400951,3.42048
2,1,Potentiostatic EIS,9.83792,3.42048,0.00501751,158.489,0.0246397,-8.47597,0.0243706,0.00363176,1.35675,0.40015,0.00985959,8,0.0504766,3.42048
2,1,Potentiostatic EIS,9.95004,3.42047,0.0051445,125.892,0.0253561,-9.21734,0.0250287,0.00406153,1.19171,0.391212,0.00991959,8,0.0635464,3.42047
2,1,Potentiostatic EIS,10.0788,3.42047,0.00496575,100,0.0261746,-9.75742,0.0257959,0.00443599,0.971859,0.380236,0.00995251,8,0.08,3.42047
2,1,Potentiostatic EIS,10.2306,3.42047,0.00506467,79.4327,0.0270327,-10.0681,0.0266164,0.00472583,0.814581,0.36842,0.00995938,8,0.100714,3.42047
2,1,Potentiostatic EIS,10.4097,3.42048,0.005128,63.0956,0.0279102,-10.2124,0.027468,0.00494843,0.693372,0.356625,0.00995347,8,0.126792,3.42048
2,1,Potentiostatic EIS,10.6248,3.42048,0.00599299,50.1186,0.0288046,-10.2622,0.0283438,0.00513163,0.56005,0.338367,0.00974652,8,0.159621,3.42048
2,1,Potentiostatic EIS,10.8841,3.42047,0.00443272,39.8107,0.0296875,-10.0993,0.0292275,0.00520583,0.441038,0.32931,0.00977638,8,0.200951,3.42047
2,1,Potentiostatic EIS,11.0271,3.42047,0.00259139,31.6228,0.0305537,-9.95621,0.0300936,0.00528259,0.34892,0.323953,0.00989804,2,0.0632456,3.42047
2,1,Potentiostatic EIS,11.189,3.42048,0.00393097,25.1188,0.0314551,-9.58778,0.0310158,0.00523912,0.303039,0.307008,0.00965689,2,0.0796217,3.42048
2,1,Potentiostatic EIS,11.3886,3.42049,0.00413141,19.9526,0.0322839,-9.23383,0.0318655,0.0051804,0.274113,0.302163,0.00975497,2,0.100238,3.42049
2,1,Potentiostatic EIS,11.6357,3.42049,0.00397991,15.8489,0.0331256,-8.83879,0.0327322,0.0050899,0.334259,0.296465,0.00982048,2,0.126192,3.42049
2,1,Potentiostatic EIS,11.9423,3.42049,0.00369037,12.5892,0.0339373,-8.33149,0.0335791,0.00491751,1.50325,0.290818,0.00986954,2,0.158866,3.42049
2,1,Potentiostatic EIS,12.3235,3.42048,0.00339203,9.99998,0.0347245,-7.80045,0.0344032,0.00471292,0.244684,0.284796,0.00988936,2,0.2,3.42048
2,1,Potentiostatic EIS,12.7991,3.42049,0.00317577,7.94328,0.0354555,-7.17304,0.035178,0.0044272,0.235758,0.279915,0.00992449,2,0.251785,3.42049
2,1,Potentiostatic EIS,13.3939,3.42049,0.00283129,6.30957,0.0360754,-6.51514,0.0358424,0.00409332,0.225228,0.274983,0.00992013,2,0.316979,3.42049
2,1,Potentiostatic EIS,14.1371,3.42049,0.00285969,5.01186,0.0366239,-5.88854,0.0364307,0.00375738,0.196805,0.271309,0.00993638,2,0.399053,3.42049
2,1,Potentiostatic EIS,15.0673,3.42049,0.00264907,3.98106,0.0370736,-5.2599,0.0369175,0.00339867,0.190912,0.268109,0.00993976,2,0.502378,3.42049
2,1,Potentiostatic EIS,16.2317,3.42049,0.00193109,3.16227,0.037443,-4.73595,0.0373152,0.00309144,0.199358,0.265626,0.00994585,2,0.632458,3.42049
2,1,Potentiostatic EIS,17.6944,3.42049,0.00193659,2.51188,0.0377642,-4.29921,0.0376579,0.00283099,0.180834,0.263511,0.00995128,2,0.796216,3.42049
2,1,Potentiostatic EIS,19.533,3.42049,0.0018623,1.99526,0.0380277,-3.95592,0.0379371,0.00262349,0.185281,0.261561,0.00994657,2,1.00238,3.42049
2,1,Potentiostatic EIS,21.8431,3.42049,0.00100155,1.58489,0.0382392,-3.76379,0.0381567,0.00251015,0.1926,0.260225,0.00995079,2,1.26192,3.42049
2,1,Potentiostatic EIS,24.7473,3.4205,0.000881868,1.25892,0.0384496,-3.61046,0.0383733,0.00242128,0.161331,0.259016,0.00995907,2,1.58866,3.4205
2,1,Potentiostatic EIS,28.3993,3.4205,0.00111896,0.999998,0.0386297,-3.58621,0.038554,0.0024163,0.167987,0.257788,0.00995829,2,2,3.4205
2,1,Potentiostatic EIS,32.9937,3.42049,-0.000197838,0.794327,0.0388401,-3.67462,0.0387602,0.00248927,0.166074,0.256296,0.00995454,2,2.51785,3.42049
2,1,Potentiostatic EIS,38.7722,3.42049,0.000136837,0.630956,0.0390444,-3.85843,0.0389559,0.00262735,0.193866,0.255096,0.00996007,2,3.16979,3.42049
2,1,Potentiostatic EIS,46.0461,3.4205,0.000431467,0.501186,0.0392232,-4.14525,0.0391205,0.00283525,0.140335,0.253852,0.00995688,2,3.99054,3.4205
2,1,Potentiostatic EIS,53.3357,3.4205,-0.00026196,0.5,0.0392431,-4.17206,0.0391392,0.00285501,0.131266,0.253816,0.00996056,2,4,3.4205