Folder: feature-extraction-paper-2024/Data/P180/P180_02/EIS_02_P180_02_1

Note: README.md
# feature-extraction-paper-2024
Repository for code used and referenced in 2024 feature extraction paper

File: 2_EIS_02_P180_02_1 20230821 131806.csv
Step number,Repeats,Step name,Elapsed Time  (s),DC Working Electrode (V),DC Current (A),Frequency (Hz),|Z| (Ohms),Phase (deg),Z' (Ohms),-Z" (Ohms),THD (%),Amplitude (A),Amplitude (V),No of Cycles,Duration of Each Frequency (s),IR Compensated DC Working Electrode (V)
2,1,Potentiostatic EIS,0,3.62374,-0.0138266,1000000,3.65931,88.7073,0.0825561,-3.65838,1.2316,0.00270297,0.00989099,1430,0.00143,3.62374
2,1,Potentiostatic EIS,0.229726,3.62367,-0.0148481,794328,2.9337,88.1847,0.0929348,-2.93223,1.29647,0.00339239,0.00995204,1445,0.00181915,3.62367
2,1,Potentiostatic EIS,0.465594,3.62366,-0.0148731,630957.375,2.33314,87.6827,0.0943359,-2.33123,1.129,0.00425523,0.00992827,1355,0.00214753,3.62366
2,1,Potentiostatic EIS,0.718191,3.62361,-0.0151912,501187.25,1.85813,87.5904,0.0781217,-1.85649,1.29229,0.00524017,0.00973783,1385,0.00276344,3.62361
2,1,Potentiostatic EIS,1.00033,3.62356,-0.0158656,398107,1.48947,86.9594,0.0790071,-1.48737,1.40546,0.00669304,0.0099691,1400,0.00351664,3.62356
2,1,Potentiostatic EIS,1.29741,3.62352,-0.0162129,316228,1.1817,86.471,0.0727384,-1.17946,1.22187,0.00842168,0.00995189,1370,0.00433232,3.62352
2,1,Potentiostatic EIS,1.62856,3.62352,-0.0163232,251189,0.949707,85.7185,0.0709024,-0.947057,1.22108,0.0104918,0.00996419,1340,0.00533464,3.62352
2,1,Potentiostatic EIS,2.16703,3.62346,-0.0171967,199526,0.757567,85.4289,0.0603745,-0.755158,1.45898,0.0129768,0.00983097,1355,0.00679109,3.62346
2,1,Potentiostatic EIS,2.625,3.62344,-0.0175219,158489,0.608491,84.5831,0.0574425,-0.605774,1.23389,0.0163646,0.00995771,1360,0.00858102,3.62344
2,1,Potentiostatic EIS,3.15945,3.62337,-0.0180148,125893,0.488911,83.9037,0.0519223,-0.486146,1.51587,0.0203836,0.00996576,1370,0.0108823,3.62337
2,1,Potentiostatic EIS,4.04502,3.6233,-0.0189823,100000,0.390782,83.0446,0.0473222,-0.387906,1.7413,0.0255,0.00996498,1370,0.0137,3.6233
2,1,Potentiostatic EIS,4.71008,3.62325,-0.0192094,79432.8,0.313548,81.7543,0.0449684,-0.310307,2.16908,0.0318993,0.010002,1365,0.0171843,3.62325
2,1,Potentiostatic EIS,4.95587,3.62317,-0.0203182,63095.7,0.252258,80.6986,0.0407721,-0.248941,1.73467,0.0396031,0.00999015,1290,0.0204451,3.62317
2,1,Potentiostatic EIS,5.20349,3.62316,-0.0213508,50118.75,0.200825,79.5151,0.0365453,-0.197472,1.7756,0.0497309,0.00998782,1025,0.0204514,3.62316
2,1,Potentiostatic EIS,5.46905,3.62313,-0.021877,39810.7,0.164307,77.1352,0.0365832,-0.160183,1.77887,0.0605656,0.00995135,815,0.0204719,3.62313
2,1,Potentiostatic EIS,5.82263,3.62309,-0.0207035,31622.8,0.133598,74.7534,0.0351326,-0.128895,1.82429,0.0749107,0.0100079,645,0.0203967,3.62309
2,1,Potentiostatic EIS,6.15103,3.62384,-0.00585017,25118.9,0.109032,72.0473,0.0336073,-0.103724,5.44104,0.0920434,0.0100357,510,0.0203034,3.62384
2,1,Potentiostatic EIS,6.3558,3.62389,-0.0053958,19952.6,0.0890049,68.8296,0.0321435,-0.082998,6.0418,0.110866,0.00986806,405,0.0202981,3.62389
2,1,Potentiostatic EIS,6.56527,3.62389,-0.00508929,15848.9,0.0729926,65.201,0.0306158,-0.0662616,6.63037,0.135766,0.00991,320,0.0201906,3.62389
2,1,Potentiostatic EIS,6.77353,3.62391,-0.00491042,12589.2,0.0609528,60.4881,0.0300257,-0.0530444,6.60849,0.164633,0.0100352,255,0.0202554,3.62391
2,1,Potentiostatic EIS,7.07837,3.62386,-0.00494788,9999.98,0.051839,55.4881,0.0293708,-0.0427158,3.31401,0.193047,0.0100073,307,0.0307001,3.62386
2,1,Potentiostatic EIS,7.29259,3.62389,-0.00441457,7943.27,0.0447551,50.1992,0.0286487,-0.0343842,4.08961,0.234972,0.0105162,244,0.0307178,3.62389
2,1,Potentiostatic EIS,7.50428,3.62391,-0.00389897,6309.57,0.0385348,44.3567,0.0275525,-0.0269406,4.68526,0.270695,0.0104312,193,0.0305885,3.62391
2,1,Potentiostatic EIS,7.71614,3.62392,-0.00382218,5011.87,0.034657,36.8254,0.0277417,-0.0207727,4.77932,0.295602,0.0102447,153,0.0305276,3.62392
2,1,Potentiostatic EIS,7.88405,3.62393,-0.00357938,3981.07,0.0322716,30.235,0.0278816,-0.0162503,4.64611,0.272664,0.00879931,122,0.0306451,3.62393
2,1,Potentiostatic EIS,8.04985,3.62394,-0.0033554,3162.27,0.03069,24.3717,0.0279551,-0.0126644,4.25031,0.343696,0.010548,97,0.0306742,3.62394
2,1,Potentiostatic EIS,8.21641,3.62393,-0.00352729,2511.88,0.0296697,19.1422,0.0280292,-0.00972912,3.85966,0.349074,0.0103569,77,0.0306543,3.62393
2,1,Potentiostatic EIS,8.38467,3.62394,-0.00324848,1995.26,0.0290624,14.6486,0.0281178,-0.00734961,3.2549,0.35061,0.0101896,61,0.0305725,3.62394
2,1,Potentiostatic EIS,8.50842,3.62396,-0.0029716,1584.89,0.0287567,10.8126,0.0282462,-0.0053947,2.96526,0.317881,0.00914123,48,0.030286,3.62396
2,1,Potentiostatic EIS,8.63063,3.62395,-0.00270179,1258.92,0.0286566,7.67301,0.0284001,-0.00382622,2.7045,0.362481,0.0103875,38,0.0301845,3.62395
2,1,Potentiostatic EIS,8.75396,3.62396,-0.00274163,999.999,0.0286784,5.05029,0.028567,-0.00252456,2.547,0.356343,0.0102193,30,0.03,3.62396
2,1,Potentiostatic EIS,8.87705,3.62397,-0.00247865,794.328,0.0288292,2.80123,0.0287948,-0.00140892,2.26649,0.351174,0.0101241,24,0.0302142,3.62397
2,1,Potentiostatic EIS,9.00108,3.62396,-0.00261431,630.956,0.0290573,0.86364,0.029054,-0.000437974,2.13323,0.346695,0.010074,19,0.030113,3.62396
2,1,Potentiostatic EIS,9.12637,3.62396,-0.00276696,501.187,0.0293293,-0.804556,0.0293264,0.000411833,2.01732,0.342648,0.0100496,15,0.029929,3.62396
2,1,Potentiostatic EIS,9.20579,3.62397,-0.00239376,398.107,0.0296914,-2.28184,0.0296678,0.00118216,1.93514,0.298163,0.00885287,12,0.0301427,3.62397
2,1,Potentiostatic EIS,9.28536,3.62397,-0.00194751,316.228,0.030076,-3.60529,0.0300164,0.00189126,1.76399,0.308902,0.00929051,9,0.0284605,3.62397
2,1,Potentiostatic EIS,9.36616,3.62397,-0.00211101,251.189,0.0306234,-4.80348,0.0305158,0.00256435,1.59418,0.313273,0.00959346,8,0.0318486,3.62397
2,1,Potentiostatic EIS,9.45573,3.62398,-0.00177145,199.526,0.0312266,-5.84344,0.0310643,0.00317919,1.39006,0.31288,0.00977015,8,0.0400951,3.62398
2,1,Potentiostatic EIS,9.55579,3.62397,-0.00183626,158.489,0.0319155,-6.79468,0.0316913,0.00377598,1.18806,0.309365,0.00987353,8,0.0504766,3.62397
2,1,Potentiostatic EIS,9.66919,3.62397,-0.00176051,125.892,0.032704,-7.62311,0.0324149,0.00433838,1.02736,0.303537,0.00992687,8,0.0635464,3.62397
2,1,Potentiostatic EIS,9.79909,3.62397,-0.00194451,100,0.033607,-8.28731,0.0332561,0.00484401,0.81293,0.296108,0.00995131,8,0.08,3.62397
2,1,Potentiostatic EIS,9.95046,3.62397,-0.00201388,79.4327,0.0345786,-8.71394,0.0341795,0.00523871,0.667014,0.288019,0.0099593,8,0.100714,3.62397
2,1,Potentiostatic EIS,10.1304,3.62397,-0.00223294,63.0956,0.0356152,-8.9641,0.0351802,0.0055494,0.560485,0.279635,0.00995925,8,0.126792,3.62397
2,1,Potentiostatic EIS,10.3451,3.62398,-0.00148941,50.1186,0.0366538,-9.08775,0.0361937,0.00578935,0.455324,0.267377,0.00980039,8,0.159621,3.62398
2,1,Potentiostatic EIS,10.6038,3.62397,-0.00230558,39.8107,0.0376992,-8.96898,0.0372383,0.0058773,0.365395,0.260631,0.00982557,8,0.200951,3.62397
2,1,Potentiostatic EIS,10.7467,3.62397,-0.00344911,31.6228,0.0386565,-8.86186,0.038195,0.00595514,0.31183,0.25649,0.00991512,2,0.0632456,3.62397
2,1,Potentiostatic EIS,10.9088,3.62396,-0.0027533,25.1188,0.0397277,-8.51468,0.0392898,0.00588219,0.239657,0.243505,0.00967377,2,0.0796217,3.62396
2,1,Potentiostatic EIS,11.1084,3.62396,-0.0027178,19.9526,0.0406686,-8.19925,0.0402529,0.0058,0.218958,0.240353,0.00977481,2,0.100238,3.62396
2,1,Potentiostatic EIS,11.3555,3.62397,-0.00250603,15.8489,0.0416231,-7.81602,0.0412364,0.00566043,0.212435,0.236502,0.00984394,2,0.126192,3.62397
2,1,Potentiostatic EIS,11.6621,3.62397,-0.0024359,12.5892,0.0425318,-7.40235,0.0421773,0.00547964,0.180801,0.232366,0.00988293,2,0.158866,3.62397
2,1,Potentiostatic EIS,12.0437,3.62397,-0.00304968,9.99998,0.0433929,-6.89404,0.0430791,0.0052086,0.187075,0.228409,0.00991132,2,0.2,3.62397
2,1,Potentiostatic EIS,12.5189,3.62396,-0.00290189,7.94328,0.0441718,-6.36463,0.0438995,0.00489668,0.172907,0.224797,0.00992969,2,0.251785,3.62396
2,1,Potentiostatic EIS,13.1115,3.62397,-0.00283311,6.30957,0.0448854,-5.80448,0.0446553,0.00453945,0.177749,0.221612,0.00994713,2,0.316979,3.62397
2,1,Potentiostatic EIS,13.8521,3.62397,-0.00271501,5.01186,0.0455061,-5.25391,0.0453149,0.00416697,0.180811,0.218624,0.0099487,2,0.399053,3.62397
2,1,Potentiostatic EIS,14.7796,3.62397,-0.00289037,3.98106,0.0460295,-4.72125,0.0458733,0.0037886,0.181011,0.216268,0.00995472,2,0.502378,3.62397
2,1,Potentiostatic EIS,15.9447,3.62397,-0.00298949,3.16227,0.0464697,-4.19556,0.0463452,0.00339977,0.168579,0.214274,0.00995724,2,0.632458,3.62397
2,1,Potentiostatic EIS,17.4072,3.62396,-0.00272459,2.51188,0.0468363,-3.78048,0.0467344,0.0030881,0.168925,0.212587,0.00995679,2,0.796216,3.62396
2,1,Potentiostatic EIS,19.2459,3.62396,-0.00286909,1.99526,0.0471601,-3.38963,0.0470776,0.00278838,0.176045,0.211267,0.0099634,2,1.00238,3.62396
2,1,Potentiostatic EIS,21.5556,3.62397,-0.00293793,1.58489,0.0474107,-3.10457,0.0473411,0.00256769,0.170076,0.210279,0.00996947,2,1.26192,3.62397
2,1,Potentiostatic EIS,24.46,3.62397,-0.00242406,1.25892,0.0476001,-2.90834,0.0475388,0.00241515,0.152163,0.209318,0.00996355,2,1.58866,3.62397
2,1,Potentiostatic EIS,28.1117,3.62398,-0.00238377,0.999998,0.0477958,-2.78573,0.0477393,0.00232292,0.172956,0.208534,0.00996707,2,2,3.62398
2,1,Potentiostatic EIS,32.7068,3.62397,-0.00275751,0.794327,0.0479418,-2.72117,0.0478877,0.00227606,0.141841,0.207857,0.00996501,2,2.51785,3.62397
2,1,Potentiostatic EIS,38.4853,3.62397,-0.00207424,0.630956,0.0481341,-2.78824,0.0480772,0.00234147,0.161543,0.207132,0.00997014,2,3.16979,3.62397
2,1,Potentiostatic EIS,45.7601,3.62397,-0.00231212,0.501186,0.0483273,-2.90515,0.0482652,0.00244935,0.130888,0.206339,0.00997178,2,3.99054,3.62397
2,1,Potentiostatic EIS,53.0508,3.62398,-0.00202011,0.5,0.0483237,-2.89952,0.0482618,0.00244443,0.123275,0.206165,0.00996267,2,4,3.62398