Folder: feature-extraction-paper-2024/Data/P180/P180_02/EIS_08_P180_02_5

Note: README.md
# feature-extraction-paper-2024
Repository for code used and referenced in 2024 feature extraction paper

File: 2_EIS_08_P180_02_5 20230828 113036.csv
Step number,Repeats,Step name,Elapsed Time  (s),DC Working Electrode (V),DC Current (A),Frequency (Hz),|Z| (Ohms),Phase (deg),Z' (Ohms),-Z" (Ohms),THD (%),Amplitude (A),Amplitude (V),No of Cycles,Duration of Each Frequency (s),IR Compensated DC Working Electrode (V)
2,1,Potentiostatic EIS,0,3.47986,-0.00683971,1000000,2.67854,87.3845,0.122229,-2.67575,1.43185,0.00372734,0.00998363,1430,0.00143,3.47986
2,1,Potentiostatic EIS,0.226335,3.47977,-0.00833534,794328,2.13967,87.0458,0.110273,-2.13683,1.35246,0.00451802,0.00966687,1445,0.00181915,3.47977
2,1,Potentiostatic EIS,0.481266,3.47976,-0.00876864,630957.375,1.70786,86.4529,0.105663,-1.70458,1.27862,0.00583009,0.00995695,1355,0.00214753,3.47976
2,1,Potentiostatic EIS,0.749792,3.4797,-0.0100529,501187.25,1.36841,86.383,0.0863276,-1.36568,1.13803,0.0072949,0.0099823,1385,0.00276344,3.4797
2,1,Potentiostatic EIS,1.03082,3.47964,-0.0111324,398107,1.09579,85.5965,0.0841348,-1.09256,1.35791,0.00910457,0.00997676,1400,0.00351664,3.47964
2,1,Potentiostatic EIS,1.36081,3.47959,-0.0118637,316228,0.874003,85.0073,0.0760638,-0.870687,1.43641,0.0112879,0.00986567,1370,0.00433232,3.47959
2,1,Potentiostatic EIS,1.72309,3.47952,-0.0130313,251189,0.702402,84.3267,0.0694371,-0.698961,1.44104,0.014221,0.00998888,1340,0.00533464,3.47952
2,1,Potentiostatic EIS,2.13264,3.47947,-0.0142171,199526,0.561328,83.852,0.0601168,-0.5581,1.54174,0.0176866,0.00992804,1355,0.00679109,3.47947
2,1,Potentiostatic EIS,2.79162,3.47936,-0.0159722,158489,0.451527,82.7996,0.0565943,-0.447966,1.43489,0.0220128,0.00993944,1360,0.00858102,3.47936
2,1,Potentiostatic EIS,3.32165,3.47933,-0.0168577,125893,0.365013,81.865,0.0516516,-0.36134,1.64419,0.0273585,0.00998627,1370,0.0108823,3.47933
2,1,Potentiostatic EIS,3.94291,3.47921,-0.0181857,100000,0.292778,80.8229,0.0466944,-0.289031,1.90811,0.0332182,0.00972453,1370,0.0137,3.47921
2,1,Potentiostatic EIS,4.60837,3.47911,-0.0196681,79432.8,0.23686,79.3952,0.0435902,-0.232814,2.15075,0.0420763,0.00996628,1365,0.0171843,3.47911
2,1,Potentiostatic EIS,4.85625,3.47903,-0.021821,63095.7,0.191469,77.8237,0.0403846,-0.187161,2.14762,0.0508962,0.00974509,1290,0.0204451,3.47903
2,1,Potentiostatic EIS,5.22583,3.47899,-0.0223267,50118.75,0.154789,75.7757,0.0380345,-0.150043,2.0499,0.064345,0.00996004,1025,0.0204514,3.47899
2,1,Potentiostatic EIS,5.60533,3.47958,-0.00777299,39810.7,0.126066,73.6371,0.0355155,-0.12096,4.46917,0.078983,0.00995713,815,0.0204719,3.47958
2,1,Potentiostatic EIS,5.83354,3.47957,-0.00794683,31622.8,0.103545,70.7573,0.0341254,-0.0977602,5.37345,0.0970951,0.0100538,645,0.0203967,3.47957
2,1,Potentiostatic EIS,6.0599,3.47994,-0.000203084,25118.9,0.0855247,67.6014,0.0325891,-0.0790723,6.18004,0.117893,0.0100829,510,0.0203034,3.47994
2,1,Potentiostatic EIS,6.28415,3.47996,0.000548309,19952.6,0.0705396,63.9194,0.0310117,-0.063357,6.47358,0.142798,0.010073,405,0.0202981,3.47996
2,1,Potentiostatic EIS,6.50518,3.47997,0.00109287,15848.9,0.0586309,59.6105,0.02966,-0.0505754,6.72008,0.170531,0.00999843,320,0.0201906,3.47997
2,1,Potentiostatic EIS,6.70706,3.48002,0.00196813,12589.2,0.0500019,54.5897,0.0289725,-0.0407527,6.80506,0.194643,0.00973253,255,0.0202554,3.48002
2,1,Potentiostatic EIS,6.976,3.48021,0.00142832,9999.98,0.043366,49.3218,0.0282664,-0.0328881,3.21643,0.232291,0.0100735,307,0.0307001,3.48021
2,1,Potentiostatic EIS,7.18968,3.48023,0.00141948,7943.27,0.0383264,44.0313,0.0275551,-0.0266388,3.844,0.278241,0.010664,244,0.0307178,3.48023
2,1,Potentiostatic EIS,7.40286,3.48026,0.00205051,6309.57,0.0335936,38.2664,0.0263757,-0.0208052,4.34992,0.312385,0.0104941,193,0.0305885,3.48026
2,1,Potentiostatic EIS,7.61619,3.48031,0.00287369,5011.87,0.0309955,30.8041,0.0266228,-0.0158729,4.41715,0.332425,0.0103037,153,0.0305276,3.48031
2,1,Potentiostatic EIS,7.82877,3.4803,0.00255978,3981.07,0.0295103,24.9247,0.0267618,-0.0124365,4.21296,0.343847,0.010147,122,0.0306451,3.4803
2,1,Potentiostatic EIS,8.00076,3.48032,0.00337096,3162.27,0.0284948,19.8683,0.0267987,-0.00968423,3.93567,0.357303,0.0101813,97,0.0306742,3.48032
2,1,Potentiostatic EIS,8.1691,3.48031,0.00294779,2511.88,0.0278629,15.4287,0.0268588,-0.00741262,3.51885,0.373171,0.0103976,77,0.0306543,3.48031
2,1,Potentiostatic EIS,8.33724,3.48037,0.00402287,1995.26,0.0274889,11.6541,0.0269222,-0.00555283,3.24047,0.371413,0.0102097,61,0.0305725,3.48037
2,1,Potentiostatic EIS,8.45946,3.48037,0.00393515,1584.89,0.0273243,8.45012,0.0270277,-0.00401526,2.94839,0.328721,0.00898207,48,0.030286,3.48037
2,1,Potentiostatic EIS,8.58178,3.48035,0.00399128,1258.92,0.0272653,5.8017,0.0271257,-0.00275614,2.63094,0.378845,0.0103293,38,0.0301845,3.48035
2,1,Potentiostatic EIS,8.70609,3.48037,0.00401657,999.999,0.0273347,3.58609,0.0272812,-0.00170974,2.42168,0.374446,0.0102354,30,0.03,3.48037
2,1,Potentiostatic EIS,8.82983,3.48036,0.00408002,794.328,0.0275097,1.70445,0.0274975,-0.000818246,2.32019,0.368544,0.0101385,24,0.0302142,3.48036
2,1,Potentiostatic EIS,8.95277,3.48038,0.004162,630.956,0.0277244,0.0381901,0.0277244,-1.84795e-05,2.2055,0.363035,0.0100649,19,0.030113,3.48038
2,1,Potentiostatic EIS,9.0791,3.48039,0.00427704,501.187,0.027986,-1.41109,0.0279775,0.000689176,2.08981,0.358268,0.0100265,15,0.029929,3.48039
2,1,Potentiostatic EIS,9.15866,3.48039,0.00437129,398.107,0.0283307,-2.65854,0.0283002,0.00131408,1.9888,0.31122,0.00881707,12,0.0301427,3.48039
2,1,Potentiostatic EIS,9.23877,3.48039,0.0046092,316.228,0.0287237,-3.82949,0.0286595,0.00191838,1.80922,0.323034,0.00927872,9,0.0284605,3.48039
2,1,Potentiostatic EIS,9.31971,3.48039,0.00468922,251.189,0.0292124,-4.90233,0.0291056,0.00249642,1.62217,0.327654,0.00957156,8,0.0318486,3.48039
2,1,Potentiostatic EIS,9.40934,3.48039,0.0049341,199.526,0.0297745,-5.78261,0.029623,0.00299991,1.43896,0.327551,0.00975268,8,0.0400951,3.48039
2,1,Potentiostatic EIS,9.51012,3.48039,0.004746,158.489,0.0304203,-6.57328,0.0302203,0.00348233,1.23144,0.324219,0.00986284,8,0.0504766,3.48039
2,1,Potentiostatic EIS,9.62342,3.48039,0.00490663,125.892,0.0311355,-7.24844,0.0308867,0.00392843,1.05235,0.318483,0.00991613,8,0.0635464,3.48039
2,1,Potentiostatic EIS,9.75343,3.48039,0.00485914,100,0.0319218,-7.80784,0.0316258,0.00433661,0.860952,0.311382,0.00993986,8,0.08,3.48039
2,1,Potentiostatic EIS,9.90565,3.48039,0.00462746,79.4327,0.0327896,-8.11791,0.032461,0.00463024,0.698403,0.303469,0.00995063,8,0.100714,3.48039
2,1,Potentiostatic EIS,10.0858,3.48039,0.00431695,63.0956,0.0336853,-8.28665,0.0333336,0.00485492,0.589607,0.295413,0.00995107,8,0.126792,3.48039
2,1,Potentiostatic EIS,10.3009,3.48039,0.00493647,50.1186,0.0345855,-8.3876,0.0342156,0.00504495,0.477476,0.283555,0.0098069,8,0.159621,3.48039
2,1,Potentiostatic EIS,10.5596,3.48038,0.00411911,39.8107,0.0354516,-8.31813,0.0350787,0.00512876,0.38204,0.277191,0.00982688,8,0.200951,3.48038
2,1,Potentiostatic EIS,10.7034,3.48039,0.00281139,31.6228,0.0362681,-8.239,0.0358937,0.00519731,0.333291,0.273564,0.00992177,2,0.0632456,3.48039
2,1,Potentiostatic EIS,10.8657,3.48038,0.00360309,25.1188,0.0371798,-7.96823,0.0368209,0.00515402,0.27961,0.26008,0.00966964,2,0.0796217,3.48038
2,1,Potentiostatic EIS,11.0655,3.48038,0.00326751,19.9526,0.0380323,-7.71683,0.0376879,0.00510687,0.247214,0.256798,0.00976664,2,0.100238,3.48038
2,1,Potentiostatic EIS,11.3127,3.48039,0.00349442,15.8489,0.038853,-7.38384,0.0385308,0.00499323,0.207014,0.253035,0.00983116,2,0.126192,3.48039
2,1,Potentiostatic EIS,11.6192,3.48038,0.0032111,12.5892,0.0396848,-7.01586,0.0393876,0.00484727,0.236269,0.248967,0.00988021,2,0.158866,3.48038
2,1,Potentiostatic EIS,12.0008,3.48038,0.00297785,9.99998,0.0404382,-6.54801,0.0401744,0.00461139,0.210869,0.245085,0.00991077,2,0.2,3.48038
2,1,Potentiostatic EIS,12.4762,3.48038,0.00294362,7.94328,0.0411471,-6.04486,0.0409183,0.00433308,0.169396,0.241085,0.00991995,2,0.251785,3.48038
2,1,Potentiostatic EIS,13.0699,3.48038,0.00278225,6.30957,0.041787,-5.48144,0.0415959,0.00399164,0.191167,0.238061,0.00994787,2,0.316979,3.48038
2,1,Potentiostatic EIS,13.8104,3.48038,0.0028566,5.01186,0.0422998,-4.92302,0.0421437,0.00363005,0.184993,0.235055,0.00994274,2,0.399053,3.48038
2,1,Potentiostatic EIS,14.738,3.48039,0.00249477,3.98106,0.0427537,-4.40852,0.0426272,0.00328636,0.187134,0.232825,0.00995414,2,0.502378,3.48039
2,1,Potentiostatic EIS,15.9025,3.48038,0.00218969,3.16227,0.0431169,-3.9602,0.043014,0.00297781,0.19359,0.230949,0.00995783,2,0.632458,3.48038
2,1,Potentiostatic EIS,17.3656,3.48039,0.00231986,2.51188,0.0434059,-3.56765,0.0433218,0.00270102,0.178691,0.229372,0.0099561,2,0.796216,3.48039
2,1,Potentiostatic EIS,19.2046,3.4804,0.00187845,1.99526,0.0436672,-3.29653,0.043595,0.00251102,0.154723,0.228278,0.00996828,2,1.00238,3.4804
2,1,Potentiostatic EIS,21.5143,3.48039,0.00132218,1.58489,0.0438653,-3.06157,0.0438027,0.00234281,0.162412,0.22711,0.00996224,2,1.26192,3.48039
2,1,Potentiostatic EIS,24.419,3.48038,0.0016861,1.25892,0.0443387,-2.93077,0.0442807,0.00226701,0.171513,0.224707,0.00996317,2,1.58866,3.48038
2,1,Potentiostatic EIS,28.0706,3.48038,0.0010309,0.999998,0.0445756,-2.89543,0.0445187,0.00225166,0.171107,0.223633,0.00996857,2,2,3.48038
2,1,Potentiostatic EIS,32.6655,3.48039,0.000656298,0.794327,0.0447547,-2.94671,0.0446955,0.00230071,0.14633,0.222817,0.00997207,2,2.51785,3.48039
2,1,Potentiostatic EIS,38.4444,3.48039,0.00114699,0.630956,0.0448889,-3.06788,0.0448246,0.00240241,0.179776,0.22207,0.00996846,2,3.16979,3.48039
2,1,Potentiostatic EIS,45.7188,3.48039,0.000225382,0.501186,0.0450421,-3.29517,0.0449677,0.00258902,0.170004,0.221307,0.00996814,2,3.99054,3.48039
2,1,Potentiostatic EIS,53.0091,3.4804,0.000353171,0.5,0.0450031,-3.30919,0.0449281,0.00259777,0.164851,0.221543,0.0099701,2,4,3.4804