Folder: feature-extraction-paper-2024/Data/P180/P180_02/EIS_04_P180_02_3

Note: README.md
# feature-extraction-paper-2024
Repository for code used and referenced in 2024 feature extraction paper

File: 2_EIS_04_P180_02_3 20230822 144050.csv
Step number,Repeats,Step name,Elapsed Time  (s),DC Working Electrode (V),DC Current (A),Frequency (Hz),|Z| (Ohms),Phase (deg),Z' (Ohms),-Z" (Ohms),THD (%),Amplitude (A),Amplitude (V),No of Cycles,Duration of Each Frequency (s),IR Compensated DC Working Electrode (V)
2,1,Potentiostatic EIS,0,3.38113,-0.00437553,1000000,2.97352,88.3871,0.0836926,-2.97235,0.889817,0.00334078,0.0099339,1430,0.00143,3.38113
2,1,Potentiostatic EIS,0.236465,3.38108,-0.00561589,794328,2.37534,88.0252,0.0818522,-2.37393,0.964075,0.00416079,0.00988334,1445,0.00181915,3.38108
2,1,Potentiostatic EIS,0.495958,3.38103,-0.0066902,630957.375,1.89524,87.5422,0.0812745,-1.8935,0.945121,0.00527012,0.00998816,1355,0.00214753,3.38103
2,1,Potentiostatic EIS,0.769158,3.38099,-0.00726694,501187.25,1.5129,87.5851,0.0637472,-1.51156,0.920175,0.0065884,0.00996763,1385,0.00276344,3.38099
2,1,Potentiostatic EIS,1.05174,3.38094,-0.00828846,398107,1.20819,86.9846,0.0635556,-1.20652,1.01138,0.0082611,0.00998099,1400,0.00351664,3.38094
2,1,Potentiostatic EIS,1.35233,3.38089,-0.00907848,316228,0.959997,86.5915,0.0570767,-0.958299,1.06074,0.0103428,0.00992905,1370,0.00433232,3.38089
2,1,Potentiostatic EIS,1.69647,3.38085,-0.010073,251189,0.77025,85.8896,0.0552109,-0.768269,1.09176,0.0127339,0.00980824,1340,0.00533464,3.38085
2,1,Potentiostatic EIS,2.10379,3.38076,-0.0113154,199526,0.613602,85.6334,0.0467178,-0.611821,1.13981,0.0161908,0.00993476,1355,0.00679109,3.38076
2,1,Potentiostatic EIS,2.56444,3.38072,-0.0125044,158489,0.493391,84.781,0.0448802,-0.491346,1.2917,0.0202105,0.00997169,1360,0.00858102,3.38072
2,1,Potentiostatic EIS,3.15046,3.38064,-0.0136933,125893,0.395315,84.1767,0.0401087,-0.393275,1.34064,0.0253166,0.010008,1370,0.0108823,3.38064
2,1,Potentiostatic EIS,3.77084,3.38055,-0.0151899,100000,0.31593,83.1698,0.0375727,-0.313688,1.50659,0.0312481,0.00987217,1370,0.0137,3.38055
2,1,Potentiostatic EIS,4.44381,3.38045,-0.0169045,79432.8,0.253936,82.0371,0.0351784,-0.251488,2.29244,0.0393953,0.0100039,1365,0.0171843,3.38045
2,1,Potentiostatic EIS,4.69748,3.38035,-0.0189594,63095.7,0.203872,80.9243,0.0321586,-0.20132,1.68735,0.0484546,0.00987841,1290,0.0204451,3.38035
2,1,Potentiostatic EIS,5.00372,3.38032,-0.018618,50118.75,0.164172,79.1255,0.0309725,-0.161224,1.77154,0.0590516,0.00969487,1025,0.0204514,3.38032
2,1,Potentiostatic EIS,5.26909,3.38026,-0.0194974,39810.7,0.132786,77.3214,0.0291443,-0.129549,2.041,0.075074,0.0099688,815,0.0204719,3.38026
2,1,Potentiostatic EIS,5.62965,3.38086,-0.00571573,31622.8,0.108181,74.9406,0.0281076,-0.104466,5.33708,0.0925151,0.0100084,645,0.0203967,3.38086
2,1,Potentiostatic EIS,5.85552,3.38117,0.00154532,25118.9,0.0879155,72.2899,0.026744,-0.083749,6.12992,0.114569,0.0100724,510,0.0203034,3.38117
2,1,Potentiostatic EIS,6.08155,3.38125,0.00309246,19952.6,0.0715486,69.1236,0.0254966,-0.0668515,6.8414,0.140593,0.0100591,405,0.0202981,3.38125
2,1,Potentiostatic EIS,6.30755,3.38131,0.00361827,15848.9,0.0586199,65.4771,0.0243306,-0.0533322,7.21752,0.170553,0.0099979,320,0.0201906,3.38131
2,1,Potentiostatic EIS,6.51825,3.38131,0.00402231,12589.2,0.0489804,60.8236,0.0238779,-0.0427659,7.29191,0.198032,0.00970003,255,0.0202554,3.38131
2,1,Potentiostatic EIS,6.82369,3.38123,0.00378131,9999.98,0.0415555,55.7285,0.0234005,-0.0343405,3.46425,0.240288,0.00998529,307,0.0307001,3.38123
2,1,Potentiostatic EIS,7.03639,3.38125,0.00390139,7943.27,0.0358789,50.4513,0.0228453,-0.0276656,4.18933,0.276914,0.00993536,244,0.0307178,3.38125
2,1,Potentiostatic EIS,7.2488,3.38126,0.0035988,6309.57,0.0307519,44.7356,0.021845,-0.0216443,4.67349,0.344733,0.0106012,193,0.0305885,3.38126
2,1,Potentiostatic EIS,7.46191,3.3813,0.00443279,5011.87,0.0276047,36.64,0.0221501,-0.0164741,4.76518,0.377314,0.0104156,153,0.0305276,3.3813
2,1,Potentiostatic EIS,7.67529,3.38132,0.00505584,3981.07,0.0257651,29.8162,0.0223544,-0.0128109,4.55577,0.397327,0.0102372,122,0.0306451,3.38132
2,1,Potentiostatic EIS,7.84686,3.38133,0.00544149,3162.27,0.0245434,23.7871,0.0224585,-0.00989931,4.30696,0.357521,0.00877479,97,0.0306742,3.38133
2,1,Potentiostatic EIS,8.01545,3.38134,0.00553615,2511.88,0.0238142,18.4968,0.022584,-0.0075551,3.68398,0.440908,0.0104999,77,0.0306543,3.38134
2,1,Potentiostatic EIS,8.18345,3.38135,0.00533649,1995.26,0.0233938,13.8851,0.0227102,-0.00561393,3.28417,0.440512,0.0103052,61,0.0305725,3.38135
2,1,Potentiostatic EIS,8.35136,3.38137,0.00595758,1584.89,0.0231926,9.98186,0.0228415,-0.00402012,2.92677,0.436745,0.0101292,48,0.030286,3.38137
2,1,Potentiostatic EIS,8.47625,3.38137,0.0060565,1258.92,0.0231756,6.7738,0.0230138,-0.00273356,2.68434,0.394695,0.00914729,38,0.0301845,3.38137
2,1,Potentiostatic EIS,8.60027,3.38139,0.00615669,999.999,0.0232517,4.08972,0.0231925,-0.00165828,2.46245,0.443041,0.0103015,30,0.03,3.38139
2,1,Potentiostatic EIS,8.72737,3.38139,0.00621657,794.328,0.0234396,1.79145,0.0234281,-0.000732759,2.18205,0.434442,0.0101831,24,0.0302142,3.38139
2,1,Potentiostatic EIS,8.85206,3.38139,0.00631681,630.956,0.0236558,-0.182932,0.0236557,7.55273e-05,2.09658,0.426613,0.0100919,19,0.030113,3.38139
2,1,Potentiostatic EIS,8.97624,3.38139,0.00657569,501.187,0.0239678,-1.90683,0.0239545,0.000797514,2.01862,0.419339,0.0100506,15,0.029929,3.38139
2,1,Potentiostatic EIS,9.0558,3.3814,0.00633367,398.107,0.0243317,-3.40507,0.0242888,0.00144518,1.97872,0.35398,0.00861296,12,0.0301427,3.3814
2,1,Potentiostatic EIS,9.13548,3.3814,0.00666342,316.228,0.024742,-4.78021,0.0246559,0.00206184,1.81156,0.370065,0.00915613,9,0.0284605,3.3814
2,1,Potentiostatic EIS,9.21586,3.3814,0.00639383,251.189,0.0252614,-6.04013,0.0251211,0.00265813,1.66106,0.376777,0.00951791,8,0.0318486,3.3814
2,1,Potentiostatic EIS,9.30518,3.38141,0.00688017,199.526,0.0258744,-7.13102,0.0256743,0.00321202,1.51749,0.376426,0.00973981,8,0.0400951,3.38141
2,1,Potentiostatic EIS,9.40497,3.3814,0.00696548,158.489,0.0265299,-8.05134,0.0262684,0.00371579,1.32845,0.371823,0.00986442,8,0.0504766,3.3814
2,1,Potentiostatic EIS,9.51815,3.3814,0.00694044,125.892,0.0272872,-8.84261,0.0269629,0.00419461,1.13748,0.363824,0.00992774,8,0.0635464,3.3814
2,1,Potentiostatic EIS,9.64801,3.3814,0.0067632,100,0.0281325,-9.43401,0.027752,0.00461123,0.926048,0.35399,0.00995863,8,0.08,3.3814
2,1,Potentiostatic EIS,9.79858,3.3814,0.00653225,79.4327,0.029016,-9.82481,0.0285904,0.00495117,0.773494,0.343301,0.00996119,8,0.100714,3.3814
2,1,Potentiostatic EIS,9.97918,3.38139,0.00592758,63.0956,0.0299464,-10.0569,0.0294863,0.00522944,0.637707,0.332589,0.00995983,8,0.126792,3.38139
2,1,Potentiostatic EIS,10.193,3.38141,0.00670407,50.1186,0.0308867,-10.2199,0.0303967,0.00548013,0.539493,0.31616,0.00976515,8,0.159621,3.38141
2,1,Potentiostatic EIS,10.4509,3.38139,0.00585545,39.8107,0.0318369,-10.1244,0.0313412,0.00559647,0.427161,0.307666,0.00979512,8,0.200951,3.38139
2,1,Potentiostatic EIS,10.594,3.38141,0.00586349,31.6228,0.0328213,-9.99333,0.0323233,0.0056956,0.355117,0.301798,0.00990534,2,0.0632456,3.38141
2,1,Potentiostatic EIS,10.7557,3.38142,0.00536982,25.1188,0.0337306,-9.79015,0.0332394,0.00573556,0.325815,0.286332,0.00965813,2,0.0796217,3.38142
2,1,Potentiostatic EIS,10.9552,3.38141,0.00497385,19.9526,0.0346812,-9.52211,0.0342034,0.00573725,0.255969,0.28141,0.00975954,2,0.100238,3.38141
2,1,Potentiostatic EIS,11.2021,3.38141,0.00503869,15.8489,0.0356183,-9.19379,0.0351608,0.00569089,0.224058,0.275908,0.00982745,2,0.126192,3.38141
2,1,Potentiostatic EIS,11.5087,3.38142,0.00517728,12.5892,0.0365738,-8.82021,0.0361413,0.00560802,0.238208,0.270014,0.00987544,2,0.158866,3.38142
2,1,Potentiostatic EIS,11.8903,3.38142,0.0050518,9.99998,0.0374844,-8.31472,0.0370904,0.00542063,0.21852,0.26415,0.00990151,2,0.2,3.38142
2,1,Potentiostatic EIS,12.3655,3.38141,0.00463492,7.94328,0.0383336,-7.72289,0.0379859,0.00515134,0.206221,0.258695,0.00991672,2,0.251785,3.38141
2,1,Potentiostatic EIS,12.9589,3.38142,0.00427926,6.30957,0.0391181,-7.10999,0.0388173,0.00484182,0.201033,0.253997,0.0099359,2,0.316979,3.38142
2,1,Potentiostatic EIS,13.7021,3.38141,0.00398839,5.01186,0.0398011,-6.41605,0.0395518,0.00444766,0.188374,0.249837,0.00994378,2,0.399053,3.38141
2,1,Potentiostatic EIS,14.63,3.38142,0.00384082,3.98106,0.0403733,-5.79769,0.0401668,0.00407835,0.176629,0.246338,0.00994548,2,0.502378,3.38142
2,1,Potentiostatic EIS,15.795,3.38141,0.00338577,3.16227,0.0408254,-5.23896,0.0406548,0.00372776,0.191829,0.243735,0.00995056,2,0.632458,3.38141
2,1,Potentiostatic EIS,17.2582,3.38142,0.0027575,2.51188,0.0412319,-4.73526,0.0410912,0.00340377,0.186468,0.241532,0.00995882,2,0.796216,3.38142
2,1,Potentiostatic EIS,19.0972,3.38142,0.00272733,1.99526,0.0415592,-4.33211,0.0414405,0.00313928,0.200554,0.239717,0.00996244,2,1.00238,3.38142
2,1,Potentiostatic EIS,21.4074,3.38142,0.00231735,1.58489,0.0418179,-4.07102,0.0417124,0.00296878,0.145325,0.238219,0.00996185,2,1.26192,3.38142
2,1,Potentiostatic EIS,24.3123,3.38141,0.0012994,1.25892,0.0420722,-3.8767,0.041976,0.00284449,0.173282,0.236648,0.0099563,2,1.58866,3.38141
2,1,Potentiostatic EIS,27.9642,3.38142,0.00159405,0.999998,0.0423011,-3.82087,0.042207,0.00281883,0.165446,0.235503,0.00996201,2,2,3.38142
2,1,Potentiostatic EIS,32.559,3.38142,0.00109824,0.794327,0.0424951,-3.8682,0.0423983,0.00286679,0.164818,0.234503,0.00996525,2,2.51785,3.38142
2,1,Potentiostatic EIS,38.3376,3.38141,-6.30811e-05,0.630956,0.0427305,-4.03062,0.0426249,0.00300352,0.182442,0.23314,0.00996221,2,3.16979,3.38141
2,1,Potentiostatic EIS,45.6111,3.38141,0.000743421,0.501186,0.0429391,-4.2783,0.0428194,0.0032033,0.159282,0.23191,0.00995801,2,3.99054,3.38141
2,1,Potentiostatic EIS,52.9004,3.3814,0.000132219,0.5,0.0429286,-4.31383,0.042807,0.00322907,0.16591,0.23204,0.00996112,2,4,3.3814