Folder: feature-extraction-paper-2024/Data/P180/P180_02/EIS_06_P180_02_5

Note: README.md
# feature-extraction-paper-2024
Repository for code used and referenced in 2024 feature extraction paper

File: 2_EIS_06_P180_02_5 20230824 140330.csv
Step number,Repeats,Step name,Elapsed Time  (s),DC Working Electrode (V),DC Current (A),Frequency (Hz),|Z| (Ohms),Phase (deg),Z' (Ohms),-Z" (Ohms),THD (%),Amplitude (A),Amplitude (V),No of Cycles,Duration of Each Frequency (s),IR Compensated DC Working Electrode (V)
2,1,Potentiostatic EIS,0,3.43805,-0.00573731,1000000,3.46649,88.3685,0.0986936,-3.46508,1.24281,0.00288192,0.00999003,1430,0.00143,3.43805
2,1,Potentiostatic EIS,0.226043,3.438,-0.00673783,794328,2.77434,87.8507,0.104047,-2.77239,1.34472,0.00357721,0.0099243,1445,0.00181915,3.438
2,1,Potentiostatic EIS,0.463332,3.43796,-0.00725111,630957.375,2.21659,87.4223,0.0996905,-2.21435,1.03781,0.00446163,0.0098897,1355,0.00214753,3.43796
2,1,Potentiostatic EIS,0.736912,3.43793,-0.00798159,501187.25,1.76387,87.3537,0.0814375,-1.76199,1.27173,0.00564446,0.00995595,1385,0.00276344,3.43793
2,1,Potentiostatic EIS,1.01709,3.43787,-0.00890659,398107,1.41096,86.6238,0.0830936,-1.40851,1.25165,0.00706895,0.00997403,1400,0.00351664,3.43787
2,1,Potentiostatic EIS,1.3142,3.43782,-0.00954229,316228,1.12055,86.2284,0.073709,-1.11812,1.29121,0.00885996,0.00992801,1370,0.00433232,3.43782
2,1,Potentiostatic EIS,1.67939,3.43779,-0.00992074,251189,0.900528,85.5009,0.070641,-0.897753,1.15768,0.011064,0.00996346,1340,0.00533464,3.43779
2,1,Potentiostatic EIS,2.09388,3.43773,-0.0111126,199526,0.718224,85.1757,0.0604035,-0.71568,1.29664,0.0138181,0.00992448,1355,0.00679109,3.43773
2,1,Potentiostatic EIS,2.55578,3.43767,-0.0119807,158489,0.576389,84.2029,0.0582183,-0.573441,1.41252,0.0172711,0.00995488,1360,0.00858102,3.43767
2,1,Potentiostatic EIS,3.08688,3.4376,-0.0132997,125893,0.464204,83.4457,0.0529861,-0.46117,1.41484,0.0214928,0.00997712,1370,0.0108823,3.4376
2,1,Potentiostatic EIS,3.71571,3.43751,-0.0145618,100000,0.370626,82.4382,0.048773,-0.367403,1.63699,0.0269298,0.00998085,1370,0.0137,3.43751
2,1,Potentiostatic EIS,4.38015,3.43746,-0.0153301,79432.8,0.298598,81.2099,0.0456301,-0.295091,2.04271,0.0334394,0.00998499,1365,0.0171843,3.43746
2,1,Potentiostatic EIS,4.62299,3.43737,-0.016845,63095.7,0.239607,79.9164,0.0419514,-0.235906,1.75287,0.0417059,0.00999306,1290,0.0204451,3.43737
2,1,Potentiostatic EIS,4.87539,3.43734,-0.0178558,50118.75,0.193696,78.2533,0.0394335,-0.189639,1.98503,0.0514698,0.00996971,1025,0.0204514,3.43734
2,1,Potentiostatic EIS,5.12484,3.43731,-0.018183,39810.7,0.156893,75.8741,0.0382902,-0.152149,1.99772,0.0631089,0.00990158,815,0.0204719,3.43731
2,1,Potentiostatic EIS,5.40565,3.43733,-0.0172897,31622.8,0.12807,73.2315,0.0369489,-0.122625,2.09934,0.0782433,0.0100207,645,0.0203967,3.43733
2,1,Potentiostatic EIS,5.74345,3.43804,-0.00189018,25118.9,0.104432,70.3526,0.0351133,-0.0983519,5.14871,0.0938171,0.00979884,510,0.0203034,3.43804
2,1,Potentiostatic EIS,5.94839,3.43818,0.00087328,19952.6,0.0855399,66.8555,0.0336216,-0.0786553,6.46373,0.114578,0.00980142,405,0.0202981,3.43818
2,1,Potentiostatic EIS,6.15421,3.43824,0.00137763,15848.9,0.0706526,62.9904,0.0320861,-0.0629465,6.88891,0.139429,0.00985067,320,0.0201906,3.43824
2,1,Potentiostatic EIS,6.35806,3.43825,0.00177071,12589.2,0.0596052,58.0827,0.0315129,-0.0505936,6.89062,0.167895,0.0100074,255,0.0202554,3.43825
2,1,Potentiostatic EIS,6.66805,3.43835,0.00221465,9999.98,0.0510872,52.705,0.0309547,-0.0406412,3.36793,0.19586,0.0100059,307,0.0307001,3.43835
2,1,Potentiostatic EIS,6.88221,3.43836,0.00204198,7943.27,0.0446119,47.2504,0.0302824,-0.0327597,4.08495,0.2367,0.0105596,244,0.0307178,3.43836
2,1,Potentiostatic EIS,7.09505,3.43839,0.00262652,6309.57,0.0388112,41.4793,0.0290772,-0.0257066,4.64004,0.267893,0.0103972,193,0.0305885,3.43839
2,1,Potentiostatic EIS,7.30991,3.4384,0.00256935,5011.87,0.0353703,34.0415,0.029309,-0.0198,4.70984,0.289225,0.01023,153,0.0305276,3.4384
2,1,Potentiostatic EIS,7.47845,3.43844,0.00348327,3981.07,0.0333163,27.7828,0.0294756,-0.0155294,4.55066,0.272731,0.00908638,122,0.0306451,3.43844
2,1,Potentiostatic EIS,7.64639,3.43844,0.00353023,3162.27,0.0319176,22.2908,0.0295324,-0.0121065,4.12485,0.330567,0.0105509,97,0.0306742,3.43844
2,1,Potentiostatic EIS,7.81504,3.43845,0.0036615,2511.88,0.0310181,17.5158,0.0295799,-0.00933547,3.78572,0.333653,0.0103493,77,0.0306543,3.43845
2,1,Potentiostatic EIS,7.98352,3.43846,0.00351726,1995.26,0.0304921,13.405,0.0296613,-0.00706908,3.24823,0.333855,0.0101799,61,0.0305725,3.43846
2,1,Potentiostatic EIS,8.10734,3.43846,0.00358012,1584.89,0.0302163,9.95175,0.0297617,-0.00522195,3.02825,0.314373,0.00949919,48,0.030286,3.43846
2,1,Potentiostatic EIS,8.23192,3.43847,0.00393661,1258.92,0.0301002,7.11852,0.0298682,-0.00373009,2.76586,0.344548,0.010371,38,0.0301845,3.43847
2,1,Potentiostatic EIS,8.35579,3.43845,0.00359497,999.999,0.0301332,4.70623,0.0300316,-0.00247233,2.5371,0.338823,0.0102098,30,0.03,3.43845
2,1,Potentiostatic EIS,8.47913,3.43849,0.00412168,794.328,0.0302617,2.67747,0.0302287,-0.00141363,2.37148,0.334252,0.010115,24,0.0302142,3.43849
2,1,Potentiostatic EIS,8.60399,3.43848,0.00386525,630.956,0.0304647,0.960198,0.0304604,-0.000510522,2.20794,0.330229,0.0100603,19,0.030113,3.43848
2,1,Potentiostatic EIS,8.72828,3.43849,0.00448975,501.187,0.030729,-0.535385,0.0307277,0.000287135,2.06392,0.326287,0.0100265,15,0.029929,3.43849
2,1,Potentiostatic EIS,8.80801,3.43849,0.00405876,398.107,0.0310611,-1.85162,0.0310449,0.00100362,1.96282,0.285951,0.00888195,12,0.0301427,3.43849
2,1,Potentiostatic EIS,8.88714,3.4385,0.00416023,316.228,0.0314456,-3.01706,0.031402,0.00165508,1.77758,0.295992,0.00930765,9,0.0284605,3.4385
2,1,Potentiostatic EIS,8.96908,3.43849,0.00434231,251.189,0.0319245,-4.08007,0.0318436,0.00227145,1.57163,0.300277,0.00958618,8,0.0318486,3.43849
2,1,Potentiostatic EIS,9.05932,3.43849,0.00434499,199.526,0.0324916,-4.97515,0.0323692,0.00281779,1.38322,0.300261,0.00975596,8,0.0400951,3.43849
2,1,Potentiostatic EIS,9.16027,3.43848,0.00408751,158.489,0.0331246,-5.80159,0.0329549,0.00334836,1.18503,0.297607,0.00985812,8,0.0504766,3.43848
2,1,Potentiostatic EIS,9.27239,3.43848,0.00414297,125.892,0.0338257,-6.45076,0.0336115,0.00380029,0.994127,0.29295,0.00990923,8,0.0635464,3.43848
2,1,Potentiostatic EIS,9.40268,3.4385,0.00437859,100,0.0345995,-6.98274,0.0343429,0.00420627,0.809396,0.287184,0.00993641,8,0.08,3.4385
2,1,Potentiostatic EIS,9.5547,3.4385,0.00443957,79.4327,0.0354408,-7.33906,0.0351504,0.00452723,0.653286,0.280711,0.00994862,8,0.100714,3.4385
2,1,Potentiostatic EIS,9.73481,3.43849,0.00415932,63.0956,0.036308,-7.53664,0.0359944,0.00476217,0.534356,0.274119,0.00995271,8,0.126792,3.43849
2,1,Potentiostatic EIS,9.94942,3.43849,0.0044923,50.1186,0.037163,-7.66194,0.0368312,0.00495486,0.457055,0.262456,0.00975365,8,0.159621,3.43849
2,1,Potentiostatic EIS,10.2082,3.43847,0.00354214,39.8107,0.0380365,-7.61456,0.0377011,0.00504015,0.362881,0.257377,0.00978973,8,0.200951,3.43847
2,1,Potentiostatic EIS,10.3527,3.43847,0.00228178,31.6228,0.038867,-7.63445,0.0385225,0.00516357,0.323086,0.254962,0.00990971,2,0.0632456,3.43847
2,1,Potentiostatic EIS,10.5142,3.43848,0.00336599,25.1188,0.0397692,-7.37271,0.0394404,0.00510331,0.263972,0.242994,0.00966351,2,0.0796217,3.43848
2,1,Potentiostatic EIS,10.7136,3.43849,0.0034844,19.9526,0.0406287,-7.17424,0.0403106,0.005074,0.239605,0.240381,0.00976628,2,0.100238,3.43849
2,1,Potentiostatic EIS,10.9606,3.43848,0.00320892,15.8489,0.0414925,-6.93887,0.0411886,0.00501272,0.205501,0.237014,0.0098343,2,0.126192,3.43848
2,1,Potentiostatic EIS,11.267,3.43847,0.00294958,12.5892,0.0422892,-6.62038,0.0420072,0.00487554,0.214129,0.233476,0.0098735,2,0.158866,3.43847
2,1,Potentiostatic EIS,11.6484,3.43848,0.00313594,9.99998,0.0430903,-6.2161,0.0428369,0.00466576,0.183877,0.230036,0.00991233,2,0.2,3.43848
2,1,Potentiostatic EIS,12.1234,3.43847,0.00265632,7.94328,0.04378,-5.76989,0.0435582,0.00440135,0.196102,0.226846,0.00993132,2,0.251785,3.43847
2,1,Potentiostatic EIS,12.7163,3.4385,0.00273281,6.30957,0.0444323,-5.2773,0.0442439,0.00408671,0.197458,0.223705,0.00993971,2,0.316979,3.4385
2,1,Potentiostatic EIS,13.4566,3.43848,0.00255366,5.01186,0.0449835,-4.74846,0.0448292,0.0037238,0.196069,0.221235,0.00995193,2,0.399053,3.43848
2,1,Potentiostatic EIS,14.3837,3.43849,0.00245415,3.98106,0.045461,-4.28981,0.0453337,0.00340055,0.180292,0.219032,0.00995741,2,0.502378,3.43849
2,1,Potentiostatic EIS,15.549,3.43848,0.00188019,3.16227,0.0458665,-3.86921,0.045762,0.00309503,0.190991,0.217148,0.00995985,2,0.632458,3.43848
2,1,Potentiostatic EIS,17.0118,3.43848,0.00168497,2.51188,0.0461879,-3.51473,0.046101,0.00283156,0.169573,0.215683,0.00996195,2,0.796216,3.43848
2,1,Potentiostatic EIS,18.8509,3.43848,0.00167868,1.99526,0.0464199,-3.21915,0.0463466,0.00260672,0.141707,0.214631,0.00996315,2,1.00238,3.43848
2,1,Potentiostatic EIS,21.161,3.43848,0.00112303,1.58489,0.0471452,-3.00278,0.0470805,0.00246967,0.255118,0.211267,0.00995996,2,1.26192,3.43848
2,1,Potentiostatic EIS,24.0659,3.43849,0.000814145,1.25892,0.0476892,-2.88591,0.0476287,0.00240103,0.187637,0.208958,0.00996506,2,1.58866,3.43849
2,1,Potentiostatic EIS,27.7174,3.43849,0.000669911,0.999998,0.0478119,-2.84892,0.0477528,0.00237638,0.166503,0.208301,0.00995923,2,2,3.43849
2,1,Potentiostatic EIS,32.3123,3.43849,-0.000172365,0.794327,0.047905,-2.92504,0.0478426,0.00244456,0.191442,0.207996,0.00996401,2,2.51785,3.43849
2,1,Potentiostatic EIS,38.0916,3.43849,0.000179787,0.630956,0.0479863,-3.0638,0.0479177,0.00256477,0.179667,0.207661,0.00996482,2,3.16979,3.43849
2,1,Potentiostatic EIS,45.3663,3.43848,-0.000140191,0.501186,0.0480809,-3.31075,0.0480007,0.00277674,0.209144,0.207434,0.00997362,2,3.99054,3.43848
2,1,Potentiostatic EIS,52.6567,3.43848,-0.000408283,0.5,0.0480768,-3.30848,0.0479966,0.0027746,0.199148,0.207313,0.00996696,2,4,3.43848