Folder: feature-extraction-paper-2024/Data/P180/P180_02/EIS_04_P180_02_2

Note: README.md
# feature-extraction-paper-2024
Repository for code used and referenced in 2024 feature extraction paper

File: 2_EIS_04_P180_02_2 20230822 143731.csv
Step number,Repeats,Step name,Elapsed Time  (s),DC Working Electrode (V),DC Current (A),Frequency (Hz),|Z| (Ohms),Phase (deg),Z' (Ohms),-Z" (Ohms),THD (%),Amplitude (A),Amplitude (V),No of Cycles,Duration of Each Frequency (s),IR Compensated DC Working Electrode (V)
2,1,Potentiostatic EIS,0,3.3829,-0.00421122,1000000,2.5235,87.6806,0.102124,-2.52143,0.904762,0.00393444,0.00992851,1430,0.00143,3.3829
2,1,Potentiostatic EIS,0.245833,3.38282,-0.00586434,794328,2.02484,87.4175,0.0912341,-2.02278,1.0497,0.0049621,0.0100473,1445,0.00181915,3.38282
2,1,Potentiostatic EIS,0.501644,3.38279,-0.00623777,630957.375,1.61185,86.9165,0.0867036,-1.60952,0.915498,0.00618037,0.0099619,1355,0.00214753,3.38279
2,1,Potentiostatic EIS,0.768322,3.38274,-0.00719994,501187.25,1.28956,86.8722,0.0703633,-1.28764,0.832975,0.00771684,0.00995133,1385,0.00276344,3.38274
2,1,Potentiostatic EIS,1.05901,3.38269,-0.0082409,398107,1.03072,86.0223,0.0714986,-1.02824,1.01651,0.00967233,0.00996951,1400,0.00351664,3.38269
2,1,Potentiostatic EIS,1.49748,3.38264,-0.00910836,316228,0.820779,85.6088,0.0628435,-0.81837,1.10103,0.0119407,0.00980088,1370,0.00433232,3.38264
2,1,Potentiostatic EIS,1.86533,3.38257,-0.00998883,251189,0.660741,84.8075,0.0597987,-0.658029,1.09005,0.0150939,0.00997318,1340,0.00533464,3.38257
2,1,Potentiostatic EIS,2.27551,3.3825,-0.0114115,199526,0.527188,84.4487,0.0509988,-0.524715,1.22413,0.0188272,0.00992546,1355,0.00679109,3.3825
2,1,Potentiostatic EIS,2.93653,3.38242,-0.0124996,158489,0.423247,83.5075,0.0478577,-0.420533,1.25189,0.023528,0.00995822,1360,0.00858102,3.38242
2,1,Potentiostatic EIS,3.46722,3.38231,-0.014328,125893,0.341511,82.5849,0.0440741,-0.338655,1.39942,0.028993,0.00990136,1370,0.0108823,3.38231
2,1,Potentiostatic EIS,4.14111,3.3822,-0.015942,100000,0.27299,81.5194,0.0402589,-0.270005,1.68062,0.0364927,0.00996215,1370,0.0137,3.3822
2,1,Potentiostatic EIS,4.80653,3.38216,-0.0164563,79432.8,0.220197,79.9234,0.0385266,-0.2168,2.20644,0.0446446,0.0098305,1365,0.0171843,3.38216
2,1,Potentiostatic EIS,5.07957,3.38206,-0.0186164,63095.7,0.177255,78.4451,0.0355054,-0.173663,1.78086,0.0562643,0.00997315,1290,0.0204451,3.38206
2,1,Potentiostatic EIS,5.37209,3.38198,-0.0190605,50118.75,0.143336,76.3811,0.0337503,-0.139306,1.90048,0.0695296,0.00996613,1025,0.0204514,3.38198
2,1,Potentiostatic EIS,5.73922,3.38264,-0.0054327,39810.7,0.116357,73.9721,0.0321266,-0.111834,4.6932,0.0854608,0.00994394,815,0.0204719,3.38264
2,1,Potentiostatic EIS,5.9609,3.38262,-0.00598211,31622.8,0.0956565,70.9513,0.0312196,-0.0904185,5.62531,0.10536,0.0100783,645,0.0203967,3.38262
2,1,Potentiostatic EIS,6.18212,3.38296,0.00127182,25118.9,0.0783924,67.6251,0.0298413,-0.0724904,6.31033,0.128744,0.0100925,510,0.0203034,3.38296
2,1,Potentiostatic EIS,6.4018,3.38301,0.00186943,19952.6,0.0647846,63.637,0.028768,-0.0580469,6.85954,0.155636,0.0100827,405,0.0202981,3.38301
2,1,Potentiostatic EIS,6.62182,3.38305,0.00230584,15848.9,0.0540485,59.2441,0.0276394,-0.0464468,6.86235,0.185656,0.0100345,320,0.0201906,3.38305
2,1,Potentiostatic EIS,6.84441,3.38306,0.00279887,12589.2,0.0460927,53.9165,0.0271469,-0.0372502,6.72551,0.216643,0.0099857,255,0.0202554,3.38306
2,1,Potentiostatic EIS,7.14952,3.38302,0.00369704,9999.98,0.0401009,48.2725,0.0266907,-0.029928,3.19434,0.249116,0.00998977,307,0.0307001,3.38302
2,1,Potentiostatic EIS,7.36346,3.38304,0.00347411,7943.27,0.0355787,42.7201,0.0261389,-0.0241372,3.81377,0.278881,0.00992223,244,0.0307178,3.38304
2,1,Potentiostatic EIS,7.57622,3.38306,0.00354498,6309.57,0.0313784,36.8984,0.0250933,-0.0188395,4.22047,0.337024,0.0105753,193,0.0305885,3.38306
2,1,Potentiostatic EIS,7.78964,3.38308,0.00411786,5011.87,0.0291608,29.2423,0.0254446,-0.0142452,4.23828,0.356083,0.0103836,153,0.0305276,3.38308
2,1,Potentiostatic EIS,8.00257,3.38311,0.00451565,3981.07,0.0279275,23.3156,0.0256469,-0.0110536,4.03441,0.364915,0.0101911,122,0.0306451,3.38311
2,1,Potentiostatic EIS,8.17139,3.38313,0.00489847,3162.27,0.0270885,18.3142,0.0257164,-0.00851196,3.78969,0.357663,0.00968854,97,0.0306742,3.38313
2,1,Potentiostatic EIS,8.34051,3.38312,0.00497501,2511.88,0.0266127,13.976,0.0258249,-0.00642736,3.36836,0.392327,0.0104409,77,0.0306543,3.38312
2,1,Potentiostatic EIS,8.50767,3.38315,0.00516045,1995.26,0.0263641,10.2848,0.0259405,-0.00470706,3.07467,0.388034,0.0102302,61,0.0305725,3.38315
2,1,Potentiostatic EIS,8.63088,3.38316,0.00547665,1584.89,0.0262929,7.23198,0.0260837,-0.00330993,2.85076,0.331294,0.00871067,48,0.030286,3.38316
2,1,Potentiostatic EIS,8.75462,3.38316,0.00538841,1258.92,0.0263116,4.68173,0.0262238,-0.00214757,2.61954,0.383243,0.0100838,38,0.0301845,3.38316
2,1,Potentiostatic EIS,8.87872,3.38317,0.00546298,999.999,0.0264407,2.51558,0.0264152,-0.00116051,2.41253,0.387431,0.010244,30,0.03,3.38317
2,1,Potentiostatic EIS,9.00301,3.38316,0.00533489,794.328,0.0266314,0.669247,0.0266296,-0.000311063,2.24376,0.380334,0.0101288,24,0.0302142,3.38316
2,1,Potentiostatic EIS,9.12715,3.38318,0.00553591,630.956,0.0268941,-1.00153,0.02689,0.000470083,2.14498,0.373867,0.0100548,19,0.030113,3.38318
2,1,Potentiostatic EIS,9.25184,3.38317,0.00601269,501.187,0.0271864,-2.46161,0.0271613,0.00116765,2.05055,0.369112,0.0100348,15,0.029929,3.38317
2,1,Potentiostatic EIS,9.33249,3.38319,0.0060078,398.107,0.0275708,-3.74782,0.0275118,0.00180217,1.95142,0.319904,0.00882001,12,0.0301427,3.38319
2,1,Potentiostatic EIS,9.41459,3.38319,0.00618295,316.228,0.0279992,-5.01169,0.0278922,0.00244598,1.79707,0.331981,0.0092952,9,0.0284605,3.38319
2,1,Potentiostatic EIS,9.49603,3.38319,0.00593082,251.189,0.028554,-6.14797,0.0283898,0.00305803,1.59901,0.336389,0.00960524,8,0.0318486,3.38319
2,1,Potentiostatic EIS,9.58604,3.38319,0.00613098,199.526,0.0291934,-7.17709,0.0289646,0.00364732,1.43657,0.335265,0.00978751,8,0.0400951,3.38319
2,1,Potentiostatic EIS,9.68606,3.38319,0.00601905,158.489,0.0299296,-8.09826,0.0296312,0.00421622,1.23282,0.330633,0.00989572,8,0.0504766,3.38319
2,1,Potentiostatic EIS,9.79947,3.38318,0.00603962,125.892,0.0307645,-8.94839,0.0303901,0.00478526,1.05608,0.323338,0.00994734,8,0.0635464,3.38318
2,1,Potentiostatic EIS,9.92919,3.38319,0.00584805,100,0.031709,-9.57382,0.0312673,0.00527378,0.86661,0.314336,0.00996726,8,0.08,3.38319
2,1,Potentiostatic EIS,10.0815,3.38318,0.00585453,79.4327,0.0327491,-9.99818,0.0322518,0.0056858,0.699415,0.304604,0.00997551,8,0.100714,3.38318
2,1,Potentiostatic EIS,10.2621,3.38318,0.00549125,63.0956,0.0338214,-10.1964,0.0332873,0.00598715,0.576461,0.294807,0.00997079,8,0.126792,3.38318
2,1,Potentiostatic EIS,10.477,3.38319,0.00644521,50.1186,0.0349121,-10.3393,0.0343452,0.00626592,0.472271,0.279742,0.00976638,8,0.159621,3.38319
2,1,Potentiostatic EIS,10.7362,3.38317,0.00524232,39.8107,0.0360027,-10.2097,0.0354326,0.00638153,0.372758,0.27208,0.0097956,8,0.200951,3.38317
2,1,Potentiostatic EIS,10.8799,3.38318,0.00357575,31.6228,0.0370517,-10.098,0.0364777,0.00649636,0.374726,0.267411,0.00990819,2,0.0632456,3.38318
2,1,Potentiostatic EIS,11.0415,3.38318,0.0047296,25.1188,0.0382012,-9.71963,0.0376528,0.00644939,0.287914,0.253,0.00966495,2,0.0796217,3.38318
2,1,Potentiostatic EIS,11.2409,3.38318,0.00476775,19.9526,0.0392705,-9.36156,0.0387475,0.0063879,0.236997,0.248751,0.00976854,2,0.100238,3.38318
2,1,Potentiostatic EIS,11.488,3.38319,0.00481987,15.8489,0.0403117,-8.9475,0.0398212,0.00626966,0.237098,0.243984,0.00983542,2,0.126192,3.38319
2,1,Potentiostatic EIS,11.7946,3.38319,0.00465674,12.5892,0.0413407,-8.45838,0.040891,0.00608084,0.223721,0.239123,0.00988553,2,0.158866,3.38319
2,1,Potentiostatic EIS,12.1762,3.38318,0.00373487,9.99998,0.0423053,-7.85696,0.0419082,0.00578316,0.227207,0.234205,0.00990811,2,0.2,3.38318
2,1,Potentiostatic EIS,12.651,3.3832,0.00391729,7.94328,0.0431821,-7.23819,0.042838,0.00544071,0.20298,0.229702,0.00991903,2,0.251785,3.3832
2,1,Potentiostatic EIS,13.2446,3.38318,0.00354816,6.30957,0.0439756,-6.57201,0.0436866,0.00503309,0.184939,0.226214,0.0099479,2,0.316979,3.38318
2,1,Potentiostatic EIS,13.9846,3.38318,0.00361661,5.01186,0.0446375,-5.90667,0.0444005,0.00459358,0.18485,0.222828,0.0099465,2,0.399053,3.38318
2,1,Potentiostatic EIS,14.9119,3.38319,0.0032348,3.98106,0.045196,-5.30061,0.0450027,0.00417526,0.183123,0.220271,0.00995539,2,0.502378,3.38319
2,1,Potentiostatic EIS,16.0771,3.38319,0.00276799,3.16227,0.0456578,-4.77192,0.0454996,0.00379825,0.156595,0.218073,0.00995675,2,0.632458,3.38319
2,1,Potentiostatic EIS,17.5396,3.38319,0.00293018,2.51188,0.0460636,-4.30329,0.0459337,0.00345642,0.18845,0.216194,0.00995866,2,0.796216,3.38319
2,1,Potentiostatic EIS,19.3774,3.38319,0.00229373,1.99526,0.0463627,-3.97631,0.0462511,0.00321497,0.146796,0.214819,0.00995959,2,1.00238,3.38319
2,1,Potentiostatic EIS,21.687,3.38319,0.00171652,1.58489,0.0466174,-3.72672,0.0465188,0.00303002,0.180319,0.213756,0.00996472,2,1.26192,3.38319
2,1,Potentiostatic EIS,24.5918,3.38319,0.00190931,1.25892,0.0468578,-3.56519,0.0467671,0.00291382,0.179161,0.212612,0.00996254,2,1.58866,3.38319
2,1,Potentiostatic EIS,28.243,3.38318,0.00117055,0.999998,0.0471012,-3.51114,0.0470128,0.0028846,0.179275,0.211722,0.00997238,2,2,3.38318
2,1,Potentiostatic EIS,32.8379,3.38318,0.000484332,0.794327,0.0478558,-3.5301,0.047765,0.00294662,0.288629,0.208351,0.00997079,2,2.51785,3.38318
2,1,Potentiostatic EIS,38.6172,3.38318,0.00112703,0.630956,0.0480651,-3.64429,0.0479679,0.00305511,0.177327,0.207374,0.00996746,2,3.16979,3.38318
2,1,Potentiostatic EIS,45.8909,3.38318,2.56228e-05,0.501186,0.048109,-3.92158,0.0479964,0.00329023,0.18033,0.207241,0.00997015,2,3.99054,3.38318
2,1,Potentiostatic EIS,53.1805,3.38317,-4.51815e-05,0.5,0.0480502,-3.94068,0.0479366,0.00330219,0.167247,0.207565,0.00997356,2,4,3.38317