Folder: feature-extraction-paper-2024/Data/P180/P180_02/EIS_06_P180_02_1

Note: README.md
# feature-extraction-paper-2024
Repository for code used and referenced in 2024 feature extraction paper

File: 2_EIS_06_P180_02_1 20230824 134918.csv
Step number,Repeats,Step name,Elapsed Time  (s),DC Working Electrode (V),DC Current (A),Frequency (Hz),|Z| (Ohms),Phase (deg),Z' (Ohms),-Z" (Ohms),THD (%),Amplitude (A),Amplitude (V),No of Cycles,Duration of Each Frequency (s),IR Compensated DC Working Electrode (V)
2,1,Potentiostatic EIS,0,3.45324,-0.0109629,1000000,3.2425,88.0368,0.111079,-3.24059,1.13516,0.00307611,0.00997474,1430,0.00143,3.45324
2,1,Potentiostatic EIS,0.233434,3.45317,-0.0122017,794328,2.59097,87.8638,0.0965805,-2.58917,1.24007,0.00382855,0.00991954,1445,0.00181915,3.45317
2,1,Potentiostatic EIS,0.471976,3.45314,-0.0126252,630957.375,2.06307,87.2823,0.0978202,-2.06075,1.26005,0.00473918,0.00977687,1355,0.00214753,3.45314
2,1,Potentiostatic EIS,0.748296,3.45312,-0.0131303,501187.25,1.64378,87.3776,0.075209,-1.64206,1.24189,0.00605738,0.00995707,1385,0.00276344,3.45312
2,1,Potentiostatic EIS,1.0361,3.45306,-0.0141718,398107,1.3176,86.534,0.0796572,-1.31519,1.31008,0.00755649,0.00995646,1400,0.00351664,3.45306
2,1,Potentiostatic EIS,1.33644,3.45304,-0.0145267,316228,1.04657,86.1499,0.0702735,-1.04421,1.16477,0.00949466,0.00993691,1370,0.00433232,3.45304
2,1,Potentiostatic EIS,1.82477,3.45296,-0.0154843,251189,0.841469,85.434,0.0669874,-0.838798,1.28434,0.0118563,0.00997674,1340,0.00533464,3.45296
2,1,Potentiostatic EIS,2.23233,3.4529,-0.0163333,199526,0.670931,85.3653,0.0542134,-0.668737,1.52626,0.0147948,0.00992632,1355,0.00679109,3.4529
2,1,Potentiostatic EIS,2.69291,3.45286,-0.0171197,158489,0.539173,84.3656,0.0529367,-0.536568,1.42129,0.0184576,0.00995189,1360,0.00858102,3.45286
2,1,Potentiostatic EIS,3.45226,3.45278,-0.0179292,125893,0.433598,83.5011,0.0490761,-0.430811,1.60985,0.0230111,0.00997761,1370,0.0108823,3.45278
2,1,Potentiostatic EIS,4.07264,3.45272,-0.0191569,100000,0.346393,82.7992,0.0434197,-0.343661,1.83923,0.0287019,0.00994215,1370,0.0137,3.45272
2,1,Potentiostatic EIS,4.7413,3.45267,-0.0197879,79432.8,0.279195,81.705,0.0402794,-0.276274,2.01115,0.0358439,0.0100074,1365,0.0171843,3.45267
2,1,Potentiostatic EIS,4.99003,3.45257,-0.0219883,63095.7,0.224156,80.474,0.0370967,-0.221065,1.8799,0.0445362,0.00998308,1290,0.0204451,3.45257
2,1,Potentiostatic EIS,5.25014,3.45253,-0.0221912,50118.75,0.181207,78.5956,0.0358305,-0.177629,1.87498,0.054487,0.00987559,1025,0.0204514,3.45253
2,1,Potentiostatic EIS,5.60013,3.45253,-0.0220602,39810.7,0.14616,77.0919,0.0326505,-0.142467,2.03258,0.0668357,0.00976851,815,0.0204719,3.45253
2,1,Potentiostatic EIS,5.94489,3.4529,-0.0122048,31622.8,0.119419,74.7824,0.031346,-0.115232,4.31622,0.0819636,0.00978742,645,0.0203967,3.4529
2,1,Potentiostatic EIS,6.17744,3.45332,-0.00147122,25118.9,0.0972237,72.1123,0.0298625,-0.0925239,5.66682,0.103502,0.0100629,510,0.0203034,3.45332
2,1,Potentiostatic EIS,6.41054,3.45338,-0.000689106,19952.6,0.0792776,69.0698,0.0283203,-0.0740465,6.31367,0.126743,0.0100479,405,0.0202981,3.45338
2,1,Potentiostatic EIS,6.61933,3.45343,-0.000378647,15848.9,0.0650801,65.418,0.027073,-0.0591817,6.86522,0.149756,0.00974629,320,0.0201906,3.45343
2,1,Potentiostatic EIS,6.83109,3.45345,-0.00034086,12589.2,0.0542642,60.966,0.026336,-0.047445,6.98016,0.181766,0.00986328,255,0.0202554,3.45345
2,1,Potentiostatic EIS,7.1407,3.45362,6.33412e-05,9999.98,0.0460525,56.093,0.0256902,-0.0382209,3.37555,0.21705,0.00999568,307,0.0307001,3.45362
2,1,Potentiostatic EIS,7.35308,3.45363,-4.33252e-05,7943.27,0.039688,50.9332,0.0250124,-0.0308142,4.11429,0.267396,0.0106124,244,0.0307178,3.45363
2,1,Potentiostatic EIS,7.5648,3.45364,0.000274437,6309.57,0.0339672,45.3357,0.0238773,-0.0241588,4.69133,0.309541,0.0105142,193,0.0305885,3.45364
2,1,Potentiostatic EIS,7.77585,3.45366,0.000765926,5011.87,0.0304073,37.5229,0.0241164,-0.0185205,4.80124,0.340039,0.0103397,153,0.0305276,3.45366
2,1,Potentiostatic EIS,7.98788,3.45367,0.00109636,3981.07,0.0282675,30.8388,0.0242709,-0.0144906,4.60619,0.360036,0.0101773,122,0.0306451,3.45367
2,1,Potentiostatic EIS,8.15617,3.45369,0.00141919,3162.27,0.026817,24.8738,0.0243294,-0.0112798,4.29331,0.352992,0.00946619,97,0.0306742,3.45369
2,1,Potentiostatic EIS,8.32862,3.45369,0.00137627,2511.88,0.0259028,19.5509,0.0244094,-0.00866821,3.78133,0.403556,0.0104532,77,0.0306543,3.45369
2,1,Potentiostatic EIS,8.49692,3.45371,0.00178822,1995.26,0.0253568,14.9163,0.0245024,-0.00652706,3.30588,0.40485,0.0102657,61,0.0305725,3.45371
2,1,Potentiostatic EIS,8.6637,3.45373,0.0023775,1584.89,0.0250811,10.975,0.0246224,-0.00477497,3.06662,0.402778,0.0101021,48,0.030286,3.45373
2,1,Potentiostatic EIS,8.78677,3.45372,0.00183987,1258.92,0.0249879,7.72764,0.024761,-0.00335999,2.73755,0.384054,0.00959672,38,0.0301845,3.45372
2,1,Potentiostatic EIS,8.91123,3.45373,0.00202839,999.999,0.0250269,4.99687,0.0249318,-0.00217988,2.43347,0.41045,0.0102723,30,0.03,3.45373
2,1,Potentiostatic EIS,9.03567,3.45373,0.00228458,794.328,0.0251725,2.69104,0.0251448,-0.00118186,2.28846,0.40395,0.0101684,24,0.0302142,3.45373
2,1,Potentiostatic EIS,9.15946,3.45375,0.00260882,630.956,0.0254012,0.729067,0.0253992,-0.000323212,2.09045,0.396851,0.0100805,19,0.030113,3.45375
2,1,Potentiostatic EIS,9.28364,3.45375,0.0030548,501.187,0.025657,-0.980864,0.0256533,0.000439209,2.00836,0.391075,0.0100338,15,0.029929,3.45375
2,1,Potentiostatic EIS,9.3632,3.45374,0.00257164,398.107,0.026017,-2.45429,0.0259931,0.00111411,1.94387,0.333346,0.00867265,12,0.0301427,3.45374
2,1,Potentiostatic EIS,9.44185,3.45374,0.00267675,316.228,0.0263948,-3.7897,0.0263371,0.00174455,1.79344,0.347662,0.00917646,9,0.0284605,3.45374
2,1,Potentiostatic EIS,9.52371,3.45375,0.00278994,251.189,0.0269001,-4.9097,0.0268014,0.00230227,1.62139,0.353729,0.00951535,8,0.0318486,3.45375
2,1,Potentiostatic EIS,9.61206,3.45375,0.002712,199.526,0.0274679,-5.94605,0.0273201,0.00284545,1.45722,0.353968,0.00972276,8,0.0400951,3.45375
2,1,Potentiostatic EIS,9.71261,3.45375,0.0026941,158.489,0.0280899,-6.78371,0.0278932,0.00331802,1.24091,0.350525,0.00984621,8,0.0504766,3.45375
2,1,Potentiostatic EIS,9.82581,3.45374,0.00264053,125.892,0.0287959,-7.48315,0.0285507,0.00375023,1.0916,0.344113,0.00990906,8,0.0635464,3.45374
2,1,Potentiostatic EIS,9.95562,3.45374,0.00265208,100,0.0295689,-8.02603,0.0292793,0.0041285,0.862222,0.336032,0.00993612,8,0.08,3.45374
2,1,Potentiostatic EIS,10.1076,3.45375,0.00273353,79.4327,0.0303838,-8.35463,0.0300614,0.00441476,0.717052,0.32732,0.00994524,8,0.100714,3.45375
2,1,Potentiostatic EIS,10.2868,3.45374,0.00256855,63.0956,0.0312366,-8.49026,0.0308943,0.00461182,0.605668,0.318397,0.00994564,8,0.126792,3.45374
2,1,Potentiostatic EIS,10.5022,3.45377,0.00355443,50.1186,0.0320952,-8.58337,0.0317357,0.00479015,0.494143,0.302077,0.0096952,8,0.159621,3.45377
2,1,Potentiostatic EIS,10.76,3.45374,0.00241618,39.8107,0.0329578,-8.43276,0.0326014,0.00483321,0.39211,0.295715,0.00974611,8,0.200951,3.45374
2,1,Potentiostatic EIS,10.9042,3.45374,0.00193695,31.6228,0.0338219,-8.19468,0.0334766,0.00482087,0.315885,0.292295,0.0098859,2,0.0632456,3.45374
2,1,Potentiostatic EIS,11.0663,3.45375,0.0019004,25.1188,0.0346202,-7.91376,0.0342905,0.0047666,0.287413,0.27854,0.00964314,2,0.0796217,3.45375
2,1,Potentiostatic EIS,11.266,3.45375,0.00184772,19.9526,0.0354185,-7.51679,0.0351141,0.00463333,0.26173,0.275308,0.00975101,2,0.100238,3.45375
2,1,Potentiostatic EIS,11.513,3.45375,0.00202253,15.8489,0.0361591,-7.03754,0.0358867,0.0044302,0.213268,0.271584,0.00982024,2,0.126192,3.45375
2,1,Potentiostatic EIS,11.8196,3.45375,0.00194124,12.5892,0.0368517,-6.57295,0.0366095,0.00421834,0.249191,0.267849,0.00987069,2,0.158866,3.45375
2,1,Potentiostatic EIS,12.2011,3.45375,0.00186232,9.99998,0.0374677,-6.02081,0.037261,0.00392997,0.189845,0.264109,0.0098955,2,0.2,3.45375
2,1,Potentiostatic EIS,12.6773,3.45376,0.00190615,7.94328,0.0380115,-5.478,0.0378379,0.00362871,0.189454,0.260931,0.00991837,2,0.251785,3.45376
2,1,Potentiostatic EIS,13.271,3.45375,0.00130475,6.30957,0.0384886,-4.95744,0.0383446,0.00332602,0.186596,0.258107,0.00993418,2,0.316979,3.45375
2,1,Potentiostatic EIS,14.014,3.45376,0.00106474,5.01186,0.0389043,-4.47746,0.0387855,0.00303713,0.184215,0.255422,0.00993699,2,0.399053,3.45376
2,1,Potentiostatic EIS,14.9414,3.45375,0.00106811,3.98106,0.0392438,-4.01797,0.0391474,0.00274979,0.17234,0.253491,0.00994795,2,0.502378,3.45375
2,1,Potentiostatic EIS,16.1063,3.45375,0.000863716,3.16227,0.0395165,-3.66512,0.0394357,0.00252609,0.194299,0.251821,0.00995112,2,0.632458,3.45375
2,1,Potentiostatic EIS,17.5699,3.45376,0.000369163,2.51188,0.0397764,-3.3759,0.0397074,0.0023423,0.201956,0.250248,0.00995396,2,0.796216,3.45376
2,1,Potentiostatic EIS,19.4082,3.45375,0.000228677,1.99526,0.0399753,-3.15037,0.0399149,0.0021969,0.181367,0.249017,0.00995452,2,1.00238,3.45375
2,1,Potentiostatic EIS,21.7185,3.45375,0.000165054,1.58489,0.0401774,-3.0001,0.0401223,0.00210279,0.175172,0.247798,0.00995588,2,1.26192,3.45375
2,1,Potentiostatic EIS,24.6232,3.45375,-0.000626294,1.25892,0.0403443,-2.93374,0.0402914,0.00206486,0.182694,0.246703,0.00995307,2,1.58866,3.45375
2,1,Potentiostatic EIS,28.2754,3.45376,-3.90911e-05,0.999998,0.0405183,-2.97324,0.0404637,0.00210167,0.170811,0.245829,0.00996057,2,2,3.45376
2,1,Potentiostatic EIS,32.8707,3.45375,-0.000283666,0.794327,0.0406833,-3.07109,0.0406249,0.00217961,0.164122,0.244885,0.00996273,2,2.51785,3.45375
2,1,Potentiostatic EIS,38.6497,3.45376,-0.00121401,0.630956,0.0408578,-3.25427,0.0407919,0.00231938,0.186101,0.243776,0.00996012,2,3.16979,3.45376
2,1,Potentiostatic EIS,45.9245,3.45375,-0.000404545,0.501186,0.0410351,-3.54419,0.0409566,0.00253672,0.223713,0.242808,0.00996365,2,3.99054,3.45375
2,1,Potentiostatic EIS,53.2137,3.45375,-0.000874511,0.5,0.0410247,-3.55153,0.0409459,0.00254133,0.220013,0.242873,0.00996377,2,4,3.45375