Folder: feature-extraction-paper-2024/Data/P180/P180_02/EIS_04_P180_02_1

Note: README.md
# feature-extraction-paper-2024
Repository for code used and referenced in 2024 feature extraction paper

File: 2_EIS_04_P180_02_1 20230822 143324.csv
Step number,Repeats,Step name,Elapsed Time  (s),DC Working Electrode (V),DC Current (A),Frequency (Hz),|Z| (Ohms),Phase (deg),Z' (Ohms),-Z" (Ohms),THD (%),Amplitude (A),Amplitude (V),No of Cycles,Duration of Each Frequency (s),IR Compensated DC Working Electrode (V)
2,1,Potentiostatic EIS,0,3.42931,-0.00858986,1000000,3.72431,88.2384,0.114486,-3.72255,1.2129,0.00266788,0.00993565,1430,0.00143,3.42931
2,1,Potentiostatic EIS,0.227804,3.42925,-0.00950904,794328,2.96797,88.011,0.103013,-2.96618,1.37244,0.00333512,0.00989856,1445,0.00181915,3.42925
2,1,Potentiostatic EIS,0.46863,3.42923,-0.00969591,630957.375,2.36318,87.3771,0.108145,-2.36071,1.2615,0.00420975,0.00994846,1355,0.00214753,3.42923
2,1,Potentiostatic EIS,0.720836,3.42919,-0.010225,501187.25,1.88856,87.6203,0.078416,-1.88693,1.12539,0.00517265,0.00976912,1385,0.00276344,3.42919
2,1,Potentiostatic EIS,1.00785,3.42913,-0.0111539,398107,1.50479,86.7997,0.0840077,-1.50245,1.09435,0.00662741,0.00997294,1400,0.00351664,3.42913
2,1,Potentiostatic EIS,1.30765,3.4291,-0.0111284,316228,1.19706,86.361,0.0759771,-1.19465,1.13775,0.00828997,0.00992363,1370,0.00433232,3.4291
2,1,Potentiostatic EIS,1.6382,3.42907,-0.0117394,251189,0.962273,85.6806,0.0724743,-0.95954,1.18981,0.0103566,0.0099659,1340,0.00533464,3.42907
2,1,Potentiostatic EIS,2.07905,3.42904,-0.0126197,199526,0.765933,85.4418,0.0608705,-0.76351,1.42455,0.0128146,0.00981548,1355,0.00679109,3.42904
2,1,Potentiostatic EIS,2.54271,3.429,-0.0130697,158489,0.6171,84.6254,0.0578023,-0.614386,1.31938,0.0161448,0.00996298,1360,0.00858102,3.429
2,1,Potentiostatic EIS,3.07388,3.42893,-0.0139931,125893,0.495551,83.9664,0.0520885,-0.492806,1.38027,0.0201322,0.00997653,1370,0.0108823,3.42893
2,1,Potentiostatic EIS,3.95745,3.42885,-0.0146179,100000,0.396359,83.0346,0.0480664,-0.393434,1.55511,0.025141,0.00996488,1370,0.0137,3.42885
2,1,Potentiostatic EIS,4.62525,3.42882,-0.0151618,79432.8,0.318796,81.8931,0.0449569,-0.315611,1.73193,0.0313529,0.00999529,1365,0.0171843,3.42882
2,1,Potentiostatic EIS,4.87448,3.42876,-0.0167573,63095.7,0.256162,80.9589,0.0402541,-0.252979,1.62186,0.0389613,0.00998045,1290,0.0204451,3.42876
2,1,Potentiostatic EIS,5.12678,3.42868,-0.0177388,50118.75,0.207262,78.3097,0.0419958,-0.202963,1.76405,0.0483477,0.0100218,1025,0.0204514,3.42868
2,1,Potentiostatic EIS,5.38155,3.42872,-0.0175296,39810.7,0.166831,77.4812,0.0361623,-0.162865,1.64803,0.0596864,0.00995757,815,0.0204719,3.42872
2,1,Potentiostatic EIS,5.73171,3.42862,-0.0167244,31622.8,0.13569,75.0494,0.0350063,-0.131097,1.8637,0.0738041,0.0100145,645,0.0203967,3.42862
2,1,Potentiostatic EIS,6.04966,3.42932,-0.0023112,25118.9,0.110457,72.7134,0.0328225,-0.105468,4.59331,0.0898537,0.00992506,510,0.0203034,3.42932
2,1,Potentiostatic EIS,6.25477,3.42946,0.000566506,19952.6,0.0900438,69.7221,0.0312069,-0.0844632,5.98829,0.109544,0.00986341,405,0.0202981,3.42946
2,1,Potentiostatic EIS,6.45716,3.42955,0.00101348,15848.9,0.0738312,66.1843,0.0298128,-0.0675444,6.55773,0.134035,0.00989606,320,0.0201906,3.42955
2,1,Potentiostatic EIS,6.66196,3.42952,0.00121559,12589.2,0.0614308,61.7601,0.0290668,-0.054119,6.69362,0.163399,0.0100378,255,0.0202554,3.42952
2,1,Potentiostatic EIS,6.96721,3.42959,0.00123578,9999.98,0.052008,56.9122,0.0283924,-0.0435741,3.37403,0.192356,0.0100041,307,0.0307001,3.42959
2,1,Potentiostatic EIS,7.1799,3.4296,0.00141375,7943.27,0.044683,51.8076,0.0276276,-0.0351181,4.14596,0.235917,0.0105415,244,0.0307178,3.4296
2,1,Potentiostatic EIS,7.39073,3.42962,0.00160251,6309.57,0.0382337,46.2543,0.026437,-0.0276207,4.74428,0.273065,0.0104403,193,0.0305885,3.42962
2,1,Potentiostatic EIS,7.60257,3.42963,0.00184675,5011.87,0.0341262,38.6424,0.0266546,-0.0213104,4.87465,0.301181,0.0102782,153,0.0305276,3.42963
2,1,Potentiostatic EIS,7.77245,3.42965,0.00209551,3981.07,0.0315534,31.9213,0.0267817,-0.016684,4.77169,0.26964,0.00850807,122,0.0306451,3.42965
2,1,Potentiostatic EIS,7.94288,3.42966,0.00223058,3162.27,0.0298483,25.9358,0.0268421,-0.0130545,4.30154,0.342135,0.0102121,97,0.0306742,3.42966
2,1,Potentiostatic EIS,8.11093,3.42965,0.00212743,2511.88,0.0287135,20.5211,0.0268915,-0.0100656,3.83266,0.361976,0.0103936,77,0.0306543,3.42965
2,1,Potentiostatic EIS,8.28091,3.42969,0.00279685,1995.26,0.0280189,15.8252,0.0269569,-0.00764084,3.47118,0.364473,0.0102121,61,0.0305725,3.42969
2,1,Potentiostatic EIS,8.4057,3.42969,0.00274519,1584.89,0.0276391,11.8104,0.027054,-0.005657,3.09402,0.316982,0.00876109,48,0.030286,3.42969
2,1,Potentiostatic EIS,8.52933,3.42969,0.00276292,1258.92,0.0275018,8.48473,0.0272008,-0.00405778,2.78623,0.366639,0.0100832,38,0.0301845,3.42969
2,1,Potentiostatic EIS,8.65406,3.42971,0.00290269,999.999,0.0274963,5.69092,0.0273607,-0.00272658,2.47138,0.372369,0.0102387,30,0.03,3.42971
2,1,Potentiostatic EIS,8.77934,3.42969,0.00265001,794.328,0.0276188,3.32382,0.0275723,-0.00160131,2.22081,0.366621,0.0101256,24,0.0302142,3.42969
2,1,Potentiostatic EIS,8.90386,3.4297,0.00301119,630.956,0.0277981,1.28611,0.0277911,-0.000623927,2.1413,0.361818,0.0100578,19,0.030113,3.4297
2,1,Potentiostatic EIS,9.03157,3.4297,0.00342689,501.187,0.0280711,-0.455758,0.0280702,0.000223289,1.97218,0.357704,0.0100412,15,0.029929,3.4297
2,1,Potentiostatic EIS,9.11169,3.42969,0.00308186,398.107,0.0284251,-1.95026,0.0284086,0.000967358,1.90573,0.308146,0.00875907,12,0.0301427,3.42969
2,1,Potentiostatic EIS,9.19042,3.42969,0.00306283,316.228,0.0288129,-3.32024,0.0287646,0.00166875,1.74763,0.320409,0.00923191,9,0.0284605,3.42969
2,1,Potentiostatic EIS,9.27238,3.4297,0.00340483,251.189,0.0293161,-4.53131,0.0292245,0.00231608,1.56428,0.325571,0.00954446,8,0.0318486,3.4297
2,1,Potentiostatic EIS,9.36183,3.4297,0.00353772,199.526,0.0299106,-5.56591,0.0297696,0.00290105,1.41009,0.325767,0.00974389,8,0.0400951,3.4297
2,1,Potentiostatic EIS,9.46245,3.4297,0.00344514,158.489,0.0305507,-6.47981,0.0303555,0.00344774,1.2061,0.32236,0.00984832,8,0.0504766,3.4297
2,1,Potentiostatic EIS,9.57551,3.42971,0.00348035,125.892,0.0312856,-7.21084,0.0310382,0.003927,1.0512,0.316879,0.00991374,8,0.0635464,3.42971
2,1,Potentiostatic EIS,9.70531,3.42971,0.00346793,100,0.0321019,-7.81528,0.0318037,0.00436521,0.833804,0.309622,0.00993946,8,0.08,3.42971
2,1,Potentiostatic EIS,9.85687,3.42969,0.00317677,79.4327,0.0329752,-8.19804,0.0326382,0.0047021,0.670996,0.301699,0.0099486,8,0.100714,3.42969
2,1,Potentiostatic EIS,10.0367,3.42968,0.00291412,63.0956,0.0338906,-8.41371,0.0335258,0.00495886,0.573982,0.293613,0.00995072,8,0.126792,3.42968
2,1,Potentiostatic EIS,10.2513,3.42969,0.0035389,50.1186,0.0348077,-8.56368,0.0344197,0.00518317,0.466686,0.279389,0.00972491,8,0.159621,3.42969
2,1,Potentiostatic EIS,10.51,3.42969,0.00287524,39.8107,0.0357355,-8.4863,0.0353442,0.00527359,0.37107,0.273293,0.00976625,8,0.200951,3.42969
2,1,Potentiostatic EIS,10.6542,3.4297,0.00159936,31.6228,0.0366093,-8.41057,0.0362156,0.00535468,0.307566,0.270434,0.00990055,2,0.0632456,3.4297
2,1,Potentiostatic EIS,10.8159,3.4297,0.00206507,25.1188,0.03758,-8.10086,0.037205,0.00529563,0.251464,0.256899,0.00965423,2,0.0796217,3.4297
2,1,Potentiostatic EIS,11.0153,3.42969,0.0020401,19.9526,0.0384558,-7.77175,0.0381026,0.00520027,0.220773,0.253808,0.00976045,2,0.100238,3.42969
2,1,Potentiostatic EIS,11.2624,3.42971,0.00232594,15.8489,0.0393201,-7.37334,0.038995,0.00504611,0.231395,0.24988,0.00982531,2,0.126192,3.42971
2,1,Potentiostatic EIS,11.5689,3.42971,0.00228368,12.5892,0.0401333,-6.93769,0.0398395,0.0048477,0.193732,0.246045,0.00987462,2,0.158866,3.42971
2,1,Potentiostatic EIS,11.9501,3.42971,0.00197107,9.99998,0.0408661,-6.3962,0.0406117,0.00455261,0.187054,0.242421,0.00990682,2,0.2,3.42971
2,1,Potentiostatic EIS,12.4257,3.4297,0.00178036,7.94328,0.0415418,-5.8592,0.0413248,0.00424076,0.172778,0.238802,0.00992028,2,0.251785,3.4297
2,1,Potentiostatic EIS,13.0194,3.42971,0.00173678,6.30957,0.0421306,-5.32853,0.0419485,0.00391252,0.180346,0.235845,0.0099363,2,0.316979,3.42971
2,1,Potentiostatic EIS,13.7623,3.42971,0.00183868,5.01186,0.0426346,-4.81882,0.0424839,0.00358153,0.173769,0.233257,0.00994482,2,0.399053,3.42971
2,1,Potentiostatic EIS,14.6895,3.4297,0.00151734,3.98106,0.0430464,-4.32997,0.0429235,0.00325002,0.164241,0.231256,0.00995474,2,0.502378,3.4297
2,1,Potentiostatic EIS,15.8545,3.4297,0.00114108,3.16227,0.0434376,-3.92382,0.0433358,0.00297244,0.184838,0.229171,0.00995463,2,0.632458,3.4297
2,1,Potentiostatic EIS,17.317,3.4297,0.00124358,2.51188,0.0437211,-3.58979,0.0436353,0.00273749,0.15954,0.227695,0.00995504,2,0.796216,3.4297
2,1,Potentiostatic EIS,19.1553,3.4297,0.00101978,1.99526,0.0439624,-3.34666,0.0438874,0.00256639,0.178426,0.226651,0.00996412,2,1.00238,3.4297
2,1,Potentiostatic EIS,21.4648,3.4297,0.000408977,1.58489,0.044176,-3.14415,0.0441095,0.00242297,0.157465,0.225368,0.00995582,2,1.26192,3.4297
2,1,Potentiostatic EIS,24.369,3.4297,0.000751802,1.25892,0.0443924,-3.04297,0.0443298,0.00235656,0.159337,0.224343,0.00995908,2,1.58866,3.4297
2,1,Potentiostatic EIS,28.0207,3.4297,0.000452844,0.999998,0.044575,-3.02541,0.0445129,0.00235261,0.177687,0.223623,0.00996802,2,2,3.4297
2,1,Potentiostatic EIS,32.616,3.4297,-0.000145931,0.794327,0.0447225,-3.12621,0.0446559,0.00243896,0.153843,0.222764,0.00996255,2,2.51785,3.4297
2,1,Potentiostatic EIS,38.3954,3.4297,0.00051837,0.630956,0.0449075,-3.24629,0.0448355,0.00254303,0.158686,0.221851,0.00996277,2,3.16979,3.4297
2,1,Potentiostatic EIS,45.6702,3.4297,-0.000192954,0.501186,0.0450833,-3.52612,0.0449979,0.00277278,0.129036,0.221004,0.00996358,2,3.99054,3.4297
2,1,Potentiostatic EIS,52.9605,3.4297,-0.000205342,0.5,0.0450548,-3.52932,0.0449693,0.00277354,0.125668,0.221115,0.00996229,2,4,3.4297