Folder: feature-extraction-paper-2024/Data/P180/P180_02/EIS_02_P180_02_3

Note: README.md
# feature-extraction-paper-2024
Repository for code used and referenced in 2024 feature extraction paper

File: 2_EIS_02_P180_02_3 20230821 132730.csv
Step number,Repeats,Step name,Elapsed Time  (s),DC Working Electrode (V),DC Current (A),Frequency (Hz),|Z| (Ohms),Phase (deg),Z' (Ohms),-Z" (Ohms),THD (%),Amplitude (A),Amplitude (V),No of Cycles,Duration of Each Frequency (s),IR Compensated DC Working Electrode (V)
2,1,Potentiostatic EIS,0,3.59847,-0.0115734,1000000,2.14654,87.1455,0.106897,-2.14388,1.01995,0.00465789,0.00999843,1430,0.00143,3.59847
2,1,Potentiostatic EIS,0.247156,3.59839,-0.0129077,794328,1.72276,86.589,0.1025,-1.71971,1.14692,0.00579888,0.00999002,1445,0.00181915,3.59839
2,1,Potentiostatic EIS,0.503706,3.59834,-0.0140496,630957.375,1.37413,86.1012,0.0934337,-1.37095,1.06364,0.00727565,0.00999781,1355,0.00214753,3.59834
2,1,Potentiostatic EIS,0.769864,3.59827,-0.0150154,501187.25,1.10285,86.2041,0.0730123,-1.10043,1.2192,0.00907068,0.0100036,1385,0.00276344,3.59827
2,1,Potentiostatic EIS,1.05366,3.5982,-0.0164106,398107,0.882056,85.1001,0.0753405,-0.878833,1.15772,0.0111319,0.00981925,1400,0.00351664,3.5982
2,1,Potentiostatic EIS,1.38265,3.59815,-0.0166028,316228,0.704429,84.6537,0.0656351,-0.701365,1.25935,0.014127,0.00995146,1370,0.00433232,3.59815
2,1,Potentiostatic EIS,1.74358,3.59809,-0.0177213,251189,0.567576,83.6926,0.0623551,-0.564141,1.29528,0.0176097,0.00999487,1340,0.00533464,3.59809
2,1,Potentiostatic EIS,2.15409,3.598,-0.0192929,199526,0.452887,83.239,0.0533175,-0.449737,1.43979,0.0219331,0.00993325,1355,0.00679109,3.598
2,1,Potentiostatic EIS,2.62692,3.59792,-0.0203354,158489,0.365062,82.0222,0.0506666,-0.361529,1.64342,0.027102,0.00989388,1360,0.00858102,3.59792
2,1,Potentiostatic EIS,3.20084,3.59781,-0.0221019,125893,0.294587,80.9774,0.0461982,-0.290942,1.79574,0.033861,0.00997502,1370,0.0108823,3.59781
2,1,Potentiostatic EIS,3.87886,3.59776,-0.0227826,100000,0.236851,79.5396,0.0430016,-0.232914,1.67479,0.0421032,0.00997218,1370,0.0137,3.59776
2,1,Potentiostatic EIS,4.61425,3.59761,-0.0246242,79432.8,0.191631,77.8042,0.0404828,-0.187306,2.6342,0.0522252,0.010008,1365,0.0171843,3.59761
2,1,Potentiostatic EIS,4.96251,3.5975,-0.0262387,63095.7,0.15492,75.852,0.0378668,-0.150221,1.93752,0.0644152,0.00997923,1290,0.0204451,3.5975
2,1,Potentiostatic EIS,5.34092,3.59816,-0.013121,50118.75,0.125953,73.4942,0.0357848,-0.120763,4.24971,0.0790373,0.00995512,1025,0.0204514,3.59816
2,1,Potentiostatic EIS,5.56049,3.59815,-0.0129702,39810.7,0.10312,70.741,0.034013,-0.0973491,4.94506,0.0972923,0.0100329,815,0.0204719,3.59815
2,1,Potentiostatic EIS,5.78128,3.59815,-0.0129073,31622.8,0.0850569,67.2332,0.0329154,-0.0784299,5.72401,0.118701,0.0100965,645,0.0203967,3.59815
2,1,Potentiostatic EIS,6.00557,3.59849,-0.00589717,25118.9,0.0707654,63.5399,0.0315312,-0.0633524,6.11306,0.142975,0.0101179,510,0.0203034,3.59849
2,1,Potentiostatic EIS,6.22602,3.59852,-0.0054559,19952.6,0.059338,58.9551,0.0306011,-0.0508386,6.58587,0.170426,0.0101126,405,0.0202981,3.59852
2,1,Potentiostatic EIS,6.45104,3.59856,-0.00434148,15848.9,0.0501168,54.0056,0.029454,-0.0405482,6.64808,0.199676,0.0100071,320,0.0201906,3.59856
2,1,Potentiostatic EIS,6.67759,3.5986,-0.00359341,12589.2,0.0435005,48.4833,0.0288337,-0.0325715,6.45188,0.230108,0.01001,255,0.0202554,3.5986
2,1,Potentiostatic EIS,6.9915,3.59856,-0.00306473,9999.98,0.0386388,42.6778,0.0284064,-0.0261923,2.94837,0.258522,0.00998899,307,0.0307001,3.59856
2,1,Potentiostatic EIS,7.2061,3.59858,-0.00307645,7943.27,0.0349553,37.2392,0.0278285,-0.021153,3.49626,0.284094,0.00993061,244,0.0307178,3.59858
2,1,Potentiostatic EIS,7.41871,3.5986,-0.00306442,6309.57,0.0313845,31.4298,0.0267798,-0.0163656,3.86181,0.335899,0.010542,193,0.0305885,3.5986
2,1,Potentiostatic EIS,7.63403,3.59864,-0.00206496,5011.87,0.0298233,24.3193,0.0271769,-0.0122819,3.88154,0.346219,0.0103254,153,0.0305276,3.59864
2,1,Potentiostatic EIS,7.84966,3.59863,-0.00234749,3981.07,0.0289885,19.11,0.027391,-0.00949032,3.69764,0.349902,0.0101431,122,0.0306451,3.59863
2,1,Potentiostatic EIS,8.01887,3.59866,-0.00154102,3162.27,0.0284523,14.7342,0.0275167,-0.00723641,3.43966,0.363063,0.01033,97,0.0306742,3.59866
2,1,Potentiostatic EIS,8.1875,3.59866,-0.00143173,2511.88,0.0281545,11.0583,0.0276317,-0.00540024,3.18402,0.368153,0.0103652,77,0.0306543,3.59866
2,1,Potentiostatic EIS,8.35728,3.59868,-0.00121644,1995.26,0.0280353,7.97614,0.0277641,-0.0038902,2.91778,0.362916,0.0101745,61,0.0305725,3.59868
2,1,Potentiostatic EIS,8.4824,3.59868,-0.00107323,1584.89,0.0280609,5.40072,0.0279363,-0.00264111,2.76091,0.331966,0.00931526,48,0.030286,3.59868
2,1,Potentiostatic EIS,8.60661,3.59869,-0.000748999,1258.92,0.0281402,3.28226,0.0280941,-0.00161117,2.54862,0.368742,0.0103765,38,0.0301845,3.59869
2,1,Potentiostatic EIS,8.73095,3.59868,-0.00106353,999.999,0.0283141,1.48383,0.0283046,-0.000733187,2.42156,0.361201,0.0102271,30,0.03,3.59868
2,1,Potentiostatic EIS,8.85518,3.5987,-0.000558605,794.328,0.0285374,-0.0213767,0.0285374,1.06471e-05,2.29389,0.35463,0.0101202,24,0.0302142,3.5987
2,1,Potentiostatic EIS,8.97915,3.59869,-0.000957542,630.956,0.0288077,-1.39151,0.0287992,0.000699565,2.21353,0.348825,0.0100488,19,0.030113,3.59869
2,1,Potentiostatic EIS,9.1039,3.59868,-0.000543824,501.187,0.029108,-2.57301,0.0290787,0.00130673,2.10024,0.344422,0.0100255,15,0.029929,3.59868
2,1,Potentiostatic EIS,9.18512,3.59871,-0.000244024,398.107,0.029491,-3.65885,0.0294309,0.00188199,2.00818,0.302526,0.00892182,12,0.0301427,3.59871
2,1,Potentiostatic EIS,9.26336,3.59862,-0.000260162,316.228,0.029904,-4.69241,0.0298038,0.00244635,1.78474,0.312611,0.00934833,9,0.0284605,3.59862
2,1,Potentiostatic EIS,9.34388,3.59872,4.1443e-05,251.189,0.0304235,-5.6628,0.030275,0.00300199,1.62583,0.316263,0.00962181,8,0.0318486,3.59872
2,1,Potentiostatic EIS,9.43266,3.59872,4.80158e-05,199.526,0.0310268,-6.53903,0.030825,0.00353333,1.42281,0.315541,0.00979022,8,0.0400951,3.59872
2,1,Potentiostatic EIS,9.53139,3.59863,0.000249846,158.489,0.0317072,-7.3274,0.0314483,0.0040439,1.19663,0.311691,0.00988284,8,0.0504766,3.59863
2,1,Potentiostatic EIS,9.64318,3.59872,-4.13699e-05,125.892,0.0324818,-7.99028,0.0321665,0.00451514,1.0171,0.305811,0.00993329,8,0.0635464,3.59872
2,1,Potentiostatic EIS,9.77183,3.59864,-6.779e-05,100,0.0333761,-8.58317,0.0330023,0.00498121,0.828687,0.298355,0.00995793,8,0.08,3.59864
2,1,Potentiostatic EIS,9.9231,3.59872,-2.70437e-05,79.4327,0.0343321,-8.96206,0.0339129,0.00534826,0.681597,0.290242,0.0099646,8,0.100714,3.59872
2,1,Potentiostatic EIS,10.1021,3.59873,-0.000146107,63.0956,0.0353402,-9.1444,0.0348911,0.00561638,0.557402,0.281911,0.00996281,8,0.126792,3.59873
2,1,Potentiostatic EIS,10.3178,3.59873,0.00064596,50.1186,0.0363435,-9.2542,0.0358704,0.00584457,0.472794,0.270039,0.00981415,8,0.159621,3.59873
2,1,Potentiostatic EIS,10.5766,3.59871,-0.000355128,39.8107,0.0373384,-9.14455,0.0368639,0.00593404,0.361285,0.263313,0.0098317,8,0.200951,3.59871
2,1,Potentiostatic EIS,10.7205,3.59873,-0.00205377,31.6228,0.0382702,-9.09668,0.0377888,0.00605055,0.319631,0.259246,0.00992148,2,0.0632456,3.59873
2,1,Potentiostatic EIS,10.8829,3.59872,-0.000797767,25.1188,0.0392957,-8.82551,0.0388304,0.00602897,0.253682,0.246211,0.00967494,2,0.0796217,3.59872
2,1,Potentiostatic EIS,11.0825,3.59871,-0.000874777,19.9526,0.0402444,-8.63756,0.039788,0.00604405,0.234395,0.242978,0.00977841,2,0.100238,3.59871
2,1,Potentiostatic EIS,11.3296,3.59873,-0.000608072,15.8489,0.0412061,-8.4185,0.0407621,0.00603267,0.206666,0.238764,0.00983848,2,0.126192,3.59873
2,1,Potentiostatic EIS,11.6361,3.59872,-0.000602498,12.5892,0.0421789,-8.16982,0.0417508,0.00599394,0.207448,0.234397,0.0098866,2,0.158866,3.59872
2,1,Potentiostatic EIS,12.017,3.59871,-0.0013642,9.99998,0.0431638,-7.82406,0.0427619,0.00587595,0.198358,0.229745,0.00991664,2,0.2,3.59871
2,1,Potentiostatic EIS,12.4919,3.59872,-0.00113156,7.94328,0.0441164,-7.4476,0.0437442,0.00571834,0.194298,0.224951,0.00992403,2,0.251785,3.59872
2,1,Potentiostatic EIS,13.0851,3.59871,-0.00119017,6.30957,0.0450443,-6.94681,0.0447137,0.00544802,0.170515,0.220883,0.00994954,2,0.316979,3.59871
2,1,Potentiostatic EIS,13.8255,3.59873,-0.000877649,5.01186,0.0458959,-6.37633,0.045612,0.00509713,0.186381,0.216859,0.00995296,2,0.399053,3.59873
2,1,Potentiostatic EIS,14.7529,3.59872,-0.00110368,3.98106,0.0466407,-5.78051,0.0464035,0.00469754,0.203694,0.21357,0.00996105,2,0.502378,3.59872
2,1,Potentiostatic EIS,15.9179,3.59871,-0.00138567,3.16227,0.0472525,-5.15872,0.0470611,0.00424872,0.192937,0.210727,0.00995738,2,0.632458,3.59871
2,1,Potentiostatic EIS,17.3809,3.59871,-0.00114433,2.51188,0.0477644,-4.6071,0.0476101,0.00383656,0.176258,0.208655,0.00996627,2,0.796216,3.59871
2,1,Potentiostatic EIS,19.2201,3.59871,-0.00142402,1.99526,0.0481649,-4.13536,0.0480395,0.00347332,0.169142,0.206924,0.00996647,2,1.00238,3.59871
2,1,Potentiostatic EIS,21.5306,3.59871,-0.00165412,1.58489,0.0484935,-3.74478,0.0483899,0.00316722,0.162792,0.205573,0.00996896,2,1.26192,3.59871
2,1,Potentiostatic EIS,24.4354,3.59871,-0.00125853,1.25892,0.0487875,-3.43126,0.0487,0.00291998,0.175547,0.204324,0.00996845,2,1.58866,3.59871
2,1,Potentiostatic EIS,28.0873,3.59872,-0.00122037,0.999998,0.0490286,-3.23543,0.0489505,0.00276712,0.135489,0.203364,0.00997067,2,2,3.59872
2,1,Potentiostatic EIS,32.6821,3.59873,-0.00144318,0.794327,0.0492475,-3.14344,0.0491734,0.00270052,0.174635,0.202334,0.00996443,2,2.51785,3.59873
2,1,Potentiostatic EIS,38.4619,3.59872,-0.000986391,0.630956,0.0494495,-3.11942,0.0493762,0.00269091,0.186579,0.201496,0.00996389,2,3.16979,3.59872
2,1,Potentiostatic EIS,45.7369,3.59871,-0.00146719,0.501186,0.0496489,-3.20487,0.0495712,0.00277569,0.140043,0.200864,0.00997265,2,3.99054,3.59871
2,1,Potentiostatic EIS,53.0264,3.59872,-0.00121801,0.5,0.0496538,-3.21618,0.0495755,0.00278574,0.140757,0.200708,0.00996593,2,4,3.59872