Folder: feature-extraction-paper-2024/Data/P180/P180_02/EIS_08_P180_02_4

Note: README.md
# feature-extraction-paper-2024
Repository for code used and referenced in 2024 feature extraction paper

File: 2_EIS_08_P180_02_4 20230828 112715.csv
Step number,Repeats,Step name,Elapsed Time  (s),DC Working Electrode (V),DC Current (A),Frequency (Hz),|Z| (Ohms),Phase (deg),Z' (Ohms),-Z" (Ohms),THD (%),Amplitude (A),Amplitude (V),No of Cycles,Duration of Each Frequency (s),IR Compensated DC Working Electrode (V)
2,1,Potentiostatic EIS,0,3.4791,-0.0081159,1000000,1.43412,85.7013,0.107495,-1.43008,1.14977,0.00699732,0.010035,1430,0.00143,3.4791
2,1,Potentiostatic EIS,0.245174,3.47897,-0.0110354,794328,1.15649,85.2213,0.0963443,-1.15247,1.22897,0.00860979,0.00995698,1445,0.00181915,3.47897
2,1,Potentiostatic EIS,0.505377,3.47889,-0.0125625,630957.375,0.926153,84.6251,0.0867544,-0.922081,1.08957,0.0104789,0.0097046,1355,0.00214753,3.47889
2,1,Potentiostatic EIS,0.803636,3.47879,-0.0150349,501187.25,0.745404,84.6809,0.0691005,-0.742194,1.29571,0.0134192,0.0100027,1385,0.00276344,3.47879
2,1,Potentiostatic EIS,1.11296,3.4787,-0.0166097,398107,0.59774,83.6749,0.0658525,-0.594102,1.57105,0.0166767,0.00996839,1400,0.00351664,3.4787
2,1,Potentiostatic EIS,1.44329,3.47862,-0.0183728,316228,0.47909,83.0986,0.0575682,-0.475619,1.69796,0.0207695,0.0099505,1370,0.00433232,3.47862
2,1,Potentiostatic EIS,1.84495,3.47852,-0.0201157,251189,0.387658,82.1509,0.0529405,-0.384026,1.73373,0.0257135,0.00996802,1340,0.00533464,3.47852
2,1,Potentiostatic EIS,2.28904,3.47841,-0.0224082,199526,0.310392,81.4733,0.0460221,-0.306961,2.06005,0.0320002,0.00993262,1355,0.00679109,3.47841
2,1,Potentiostatic EIS,2.79551,3.4783,-0.0249809,158489,0.250962,80.1157,0.0430801,-0.247237,2.04441,0.0396782,0.00995773,1360,0.00858102,3.4783
2,1,Potentiostatic EIS,3.38611,3.47819,-0.0266821,125893,0.203672,78.8057,0.0395403,-0.199797,2.12867,0.0490739,0.00999507,1370,0.0108823,3.47819
2,1,Potentiostatic EIS,4.21898,3.47799,-0.0299421,100000,0.163866,77.3791,0.0358044,-0.159906,2.34381,0.0607967,0.0099625,1370,0.0137,3.47799
2,1,Potentiostatic EIS,5.3232,3.47869,-0.0120298,79432.8,0.133362,75.2234,0.0340141,-0.128952,5.40901,0.0747626,0.00997061,1365,0.0171843,3.47869
2,1,Potentiostatic EIS,5.54242,3.47867,-0.0120401,63095.7,0.10845,73.12,0.0314903,-0.103777,4.45326,0.0905318,0.00981795,1290,0.0204451,3.47867
2,1,Potentiostatic EIS,5.76455,3.47868,-0.0119513,50118.75,0.0891994,70.5588,0.029689,-0.0841135,4.93573,0.110047,0.00981624,1025,0.0204514,3.47868
2,1,Potentiostatic EIS,5.98637,3.47866,-0.0121273,39810.7,0.0733051,67.2702,0.028324,-0.0676121,5.74638,0.133895,0.00981522,815,0.0204719,3.47866
2,1,Potentiostatic EIS,6.20924,3.47867,-0.0116467,31622.8,0.0612078,63.3799,0.0274256,-0.0547196,6.27208,0.161974,0.00991405,645,0.0203967,3.47867
2,1,Potentiostatic EIS,6.43187,3.47897,-0.00382624,25118.9,0.051437,59.3142,0.0262498,-0.0442347,6.48822,0.193296,0.00994263,510,0.0203034,3.47897
2,1,Potentiostatic EIS,6.65213,3.47904,-0.00192045,19952.6,0.0435838,54.5846,0.0252568,-0.0355196,6.65807,0.231557,0.0100923,405,0.0202981,3.47904
2,1,Potentiostatic EIS,6.8835,3.4791,-0.00138171,15848.9,0.0374881,49.3673,0.0244125,-0.0284497,6.49374,0.269283,0.0100949,320,0.0201906,3.4791
2,1,Potentiostatic EIS,7.10691,3.47913,-0.000694784,12589.2,0.0330716,43.4354,0.024015,-0.022738,6.23228,0.303352,0.0100324,255,0.0202554,3.47913
2,1,Potentiostatic EIS,7.41221,3.47937,0.000511225,9999.98,0.0299321,37.7598,0.0236639,-0.018329,2.72899,0.333425,0.00998009,307,0.0307001,3.47937
2,1,Potentiostatic EIS,7.67003,3.47943,0.00156616,7943.27,0.0275257,32.6438,0.0231777,-0.0148478,3.17634,0.370001,0.0101845,244,0.0307178,3.47943
2,1,Potentiostatic EIS,7.88445,3.47944,0.00168429,6309.57,0.0248926,26.9204,0.0221952,-0.0112702,3.61864,0.378971,0.00943359,193,0.0305885,3.47944
2,1,Potentiostatic EIS,8.09688,3.47946,0.00201616,5011.87,0.0240497,19.9225,0.0226104,-0.00819489,3.53592,0.435375,0.0104706,153,0.0305276,3.47946
2,1,Potentiostatic EIS,8.31044,3.4795,0.00319501,3981.07,0.0237045,15.0768,0.0228885,-0.00616585,3.40778,0.43247,0.0102515,122,0.0306451,3.4795
2,1,Potentiostatic EIS,8.47916,3.47953,0.00377502,3162.27,0.0235137,11.156,0.0230694,-0.00454943,3.31398,0.377475,0.00887583,97,0.0306742,3.47953
2,1,Potentiostatic EIS,8.64718,3.47953,0.0040036,2511.88,0.0234712,7.8868,0.0232492,-0.00322064,2.99622,0.446643,0.0104832,77,0.0306543,3.47953
2,1,Potentiostatic EIS,8.8152,3.47952,0.00330198,1995.26,0.0235303,5.21341,0.0234329,-0.00213809,2.59037,0.436435,0.0102694,61,0.0305725,3.47952
2,1,Potentiostatic EIS,8.98466,3.47956,0.00397801,1584.89,0.023689,2.925,0.0236581,-0.00120882,2.5511,0.427305,0.0101224,48,0.030286,3.47956
2,1,Potentiostatic EIS,9.10963,3.47955,0.00376983,1258.92,0.0238633,1.11057,0.0238588,-0.000462517,2.55633,0.409493,0.00977187,38,0.0301845,3.47955
2,1,Potentiostatic EIS,9.23367,3.47955,0.0038481,999.999,0.0241077,-0.422379,0.024107,0.000177718,2.38777,0.42599,0.0102696,30,0.03,3.47955
2,1,Potentiostatic EIS,9.35808,3.47956,0.00419147,794.328,0.0243918,-1.69133,0.0243811,0.000719924,2.3223,0.416054,0.0101483,24,0.0302142,3.47956
2,1,Potentiostatic EIS,9.48283,3.47958,0.00447465,630.956,0.0247095,-2.85609,0.0246788,0.00123121,2.23746,0.407903,0.0100791,19,0.030113,3.47958
2,1,Potentiostatic EIS,9.60627,3.47959,0.00511421,501.187,0.0250457,-3.87717,0.0249883,0.00169353,2.14877,0.401265,0.01005,15,0.029929,3.47959
2,1,Potentiostatic EIS,9.68676,3.47958,0.00466254,398.107,0.0254289,-4.77932,0.0253405,0.00211869,2.08445,0.345092,0.00877532,12,0.0301427,3.47958
2,1,Potentiostatic EIS,9.76621,3.47958,0.00479985,316.228,0.025858,-5.61485,0.0257339,0.00252997,1.89477,0.358097,0.00925968,9,0.0284605,3.47958
2,1,Potentiostatic EIS,9.84673,3.47958,0.00452911,251.189,0.0263428,-6.45146,0.026176,0.00295992,1.71567,0.363261,0.00956933,8,0.0318486,3.47958
2,1,Potentiostatic EIS,9.93606,3.47958,0.00460515,199.526,0.0269095,-7.14601,0.0267004,0.00334749,1.54557,0.362653,0.00975879,8,0.0400951,3.47958
2,1,Potentiostatic EIS,10.0364,3.47958,0.00460297,158.489,0.0275222,-7.816,0.0272665,0.00374281,1.30078,0.358561,0.00986841,8,0.0504766,3.47958
2,1,Potentiostatic EIS,10.1487,3.47957,0.00434848,125.892,0.0282176,-8.38146,0.0279162,0.00411307,1.121,0.351709,0.00992438,8,0.0635464,3.47957
2,1,Potentiostatic EIS,10.2772,3.47958,0.00432942,100,0.0289814,-8.83362,0.0286376,0.00445055,0.907766,0.343202,0.00994647,8,0.08,3.47958
2,1,Potentiostatic EIS,10.4283,3.47958,0.00467044,79.4327,0.0298007,-9.15092,0.0294214,0.00473937,0.768121,0.333921,0.00995108,8,0.100714,3.47958
2,1,Potentiostatic EIS,10.6089,3.47958,0.00439108,63.0956,0.0306772,-9.27217,0.0302764,0.00494285,0.618172,0.324379,0.00995103,8,0.126792,3.47958
2,1,Potentiostatic EIS,11.0015,3.47954,0.00385881,50.1186,0.0315702,-9.28581,0.0311565,0.00509415,0.503057,0.316486,0.00999151,8,0.159621,3.47954
2,1,Potentiostatic EIS,11.2621,3.47957,0.00352663,39.8107,0.0324794,-9.22489,0.0320594,0.00520678,0.413557,0.302675,0.00983071,8,0.200951,3.47957
2,1,Potentiostatic EIS,11.4062,3.47959,0.00207617,31.6228,0.0333292,-9.05672,0.0329136,0.00524642,0.337299,0.297572,0.00991797,2,0.0632456,3.47959
2,1,Potentiostatic EIS,11.5683,3.47959,0.00343978,25.1188,0.0342598,-8.67451,0.0338679,0.00516709,0.282842,0.282124,0.00966537,2,0.0796217,3.47959
2,1,Potentiostatic EIS,11.7679,3.47959,0.00347086,19.9526,0.0351183,-8.27198,0.0347529,0.00505255,0.253576,0.278165,0.00976867,2,0.100238,3.47959
2,1,Potentiostatic EIS,12.0149,3.47958,0.00313332,15.8489,0.0359404,-7.82254,0.035606,0.00489168,0.240362,0.273634,0.00983445,2,0.126192,3.47958
2,1,Potentiostatic EIS,12.3214,3.47958,0.00311438,12.5892,0.0367346,-7.27889,0.0364385,0.00465424,0.220675,0.26879,0.0098739,2,0.158866,3.47958
2,1,Potentiostatic EIS,12.7027,3.47958,0.00317236,9.99998,0.0373985,-6.71413,0.037142,0.00437247,0.21153,0.264738,0.00990077,2,0.2,3.47958
2,1,Potentiostatic EIS,13.1778,3.47958,0.00272972,7.94328,0.0380205,-6.12846,0.0378033,0.004059,0.231144,0.261075,0.00992621,2,0.251785,3.47958
2,1,Potentiostatic EIS,13.7712,3.47959,0.00261505,6.30957,0.0385819,-5.54394,0.0384015,0.00372736,0.186372,0.257585,0.00993815,2,0.316979,3.47959
2,1,Potentiostatic EIS,14.512,3.47959,0.00268177,5.01186,0.0390502,-4.98261,0.0389027,0.00339165,0.193019,0.254657,0.00994438,2,0.399053,3.47959
2,1,Potentiostatic EIS,15.4402,3.47959,0.00258768,3.98106,0.0394279,-4.47314,0.0393078,0.00307505,0.193322,0.252344,0.00994939,2,0.502378,3.47959
2,1,Potentiostatic EIS,16.6059,3.47958,0.00198186,3.16227,0.0397618,-4.03615,0.0396632,0.00279867,0.18082,0.250218,0.0099491,2,0.632458,3.47958
2,1,Potentiostatic EIS,18.0686,3.47958,0.00182587,2.51188,0.0400454,-3.6549,0.0399639,0.00255276,0.202185,0.24863,0.0099565,2,0.796216,3.47958
2,1,Potentiostatic EIS,19.9061,3.47958,0.00186758,1.99526,0.0402624,-3.39149,0.0401919,0.00238185,0.169055,0.247119,0.00994962,2,1.00238,3.47958
2,1,Potentiostatic EIS,22.2161,3.47959,0.00108519,1.58489,0.0404745,-3.2147,0.0404108,0.00226972,0.176961,0.245904,0.00995285,2,1.26192,3.47959
2,1,Potentiostatic EIS,25.1204,3.47959,0.00110512,1.25892,0.0406464,-3.10636,0.0405867,0.00220262,0.166887,0.244893,0.00995403,2,1.58866,3.47959
2,1,Potentiostatic EIS,28.772,3.47958,0.00117797,0.999998,0.0408345,-3.06893,0.040776,0.00218617,0.177122,0.24373,0.00995258,2,2,3.47958
2,1,Potentiostatic EIS,33.3673,3.47959,0.000197834,0.794327,0.0409895,-3.1373,0.0409281,0.00224331,0.180145,0.242903,0.00995648,2,2.51785,3.47959
2,1,Potentiostatic EIS,39.1471,3.47959,0.00063985,0.630956,0.0411618,-3.29382,0.0410938,0.002365,0.187288,0.241933,0.00995839,2,3.16979,3.47959
2,1,Potentiostatic EIS,46.4216,3.4796,0.000880826,0.501186,0.0413214,-3.5341,0.0412428,0.00254716,0.232818,0.2412,0.00996674,2,3.99054,3.4796
2,1,Potentiostatic EIS,53.7121,3.4796,0.000424774,0.5,0.0413469,-3.55853,0.0412672,0.00256632,0.206787,0.240847,0.00995831,2,4,3.4796