Folder: feature-extraction-paper-2024/Data/P180/P180_02/EIS_08_P180_02_2

Note: README.md
# feature-extraction-paper-2024
Repository for code used and referenced in 2024 feature extraction paper

File: 2_EIS_08_P180_02_2 20230828 112027.csv
Step number,Repeats,Step name,Elapsed Time  (s),DC Working Electrode (V),DC Current (A),Frequency (Hz),|Z| (Ohms),Phase (deg),Z' (Ohms),-Z" (Ohms),THD (%),Amplitude (A),Amplitude (V),No of Cycles,Duration of Each Frequency (s),IR Compensated DC Working Electrode (V)
2,1,Potentiostatic EIS,0,3.46826,-0.00808652,1000000,1.95461,86.8587,0.107111,-1.95167,1.07714,0.00513945,0.0100458,1430,0.00143,3.46826
2,1,Potentiostatic EIS,0.253193,3.46818,-0.0096309,794328,1.57324,86.3471,0.100234,-1.57004,1.11052,0.00638148,0.0100396,1445,0.00181915,3.46818
2,1,Potentiostatic EIS,0.511318,3.46814,-0.0107264,630957.375,1.25536,85.8281,0.0913255,-1.25203,1.06445,0.00795305,0.00998398,1355,0.00214753,3.46814
2,1,Potentiostatic EIS,0.786894,3.46806,-0.0119676,501187.25,1.00492,85.8925,0.0719805,-1.00233,1.26183,0.00992767,0.00997649,1385,0.00276344,3.46806
2,1,Potentiostatic EIS,1.07864,3.468,-0.0130991,398107,0.805882,84.8528,0.0723,-0.802632,1.28089,0.0120288,0.00969378,1400,0.00351664,3.468
2,1,Potentiostatic EIS,1.40851,3.46792,-0.0145828,316228,0.643194,84.5346,0.061261,-0.64027,1.29623,0.0154714,0.00995119,1370,0.00433232,3.46792
2,1,Potentiostatic EIS,1.77644,3.46788,-0.0152786,251189,0.516914,83.6234,0.0574097,-0.513716,1.4532,0.0193003,0.0099766,1340,0.00533464,3.46788
2,1,Potentiostatic EIS,2.35682,3.4678,-0.0164356,199526,0.414365,83.1908,0.0491288,-0.411442,1.40755,0.0239756,0.00993467,1355,0.00679109,3.4678
2,1,Potentiostatic EIS,2.8176,3.46772,-0.0179392,158489,0.333589,81.9153,0.0469148,-0.330273,1.80416,0.0291925,0.00973798,1360,0.00858102,3.46772
2,1,Potentiostatic EIS,3.39284,3.46761,-0.0197202,125893,0.269685,80.8744,0.0427716,-0.266271,1.78814,0.0370117,0.00998148,1370,0.0108823,3.46761
2,1,Potentiostatic EIS,4.07214,3.46749,-0.0218541,100000,0.216615,79.5651,0.0392329,-0.213032,1.96192,0.0460428,0.00997361,1370,0.0137,3.46749
2,1,Potentiostatic EIS,4.80977,3.46741,-0.0226063,79432.8,0.175536,77.7891,0.0371277,-0.171564,2.68039,0.0568331,0.00997626,1365,0.0171843,3.46741
2,1,Potentiostatic EIS,5.08977,3.46728,-0.0248055,63095.7,0.14182,75.9874,0.0343395,-0.1376,2.00721,0.0705844,0.0100102,1290,0.0204451,3.46728
2,1,Potentiostatic EIS,5.46708,3.46795,-0.00973086,50118.75,0.115524,73.546,0.0327216,-0.110793,4.53463,0.0862319,0.00996195,1025,0.0204514,3.46795
2,1,Potentiostatic EIS,5.69813,3.46795,-0.00999824,39810.7,0.0945092,70.769,0.0311293,-0.0892354,5.32915,0.106458,0.0100614,815,0.0204719,3.46795
2,1,Potentiostatic EIS,5.92976,3.46793,-0.0101312,31622.8,0.0783905,67.4405,0.030074,-0.0723922,5.75815,0.12908,0.0101188,645,0.0203967,3.46793
2,1,Potentiostatic EIS,6.15044,3.4683,-0.00176366,25118.9,0.064832,63.6654,0.0287603,-0.0581036,6.3365,0.155958,0.0101112,510,0.0203034,3.4683
2,1,Potentiostatic EIS,6.37561,3.46833,-0.000943208,19952.6,0.0540778,59.4221,0.0275099,-0.0465576,6.75301,0.18698,0.0101114,405,0.0202981,3.46833
2,1,Potentiostatic EIS,6.5979,3.46837,-0.000821036,15848.9,0.0457211,54.6136,0.0264766,-0.0372748,6.84527,0.220199,0.0100678,320,0.0201906,3.46837
2,1,Potentiostatic EIS,6.81894,3.46841,0.000327114,12589.2,0.0397203,49.1147,0.0259988,-0.0300294,6.46096,0.25203,0.0100109,255,0.0202554,3.46841
2,1,Potentiostatic EIS,7.16935,3.46861,0.000802695,9999.98,0.0351327,43.4585,0.0255018,-0.0241653,2.95313,0.284664,0.010001,307,0.0307001,3.46861
2,1,Potentiostatic EIS,7.38052,3.46866,0.00154412,7943.27,0.0316902,38.1091,0.0249351,-0.019558,3.55384,0.286151,0.0090682,244,0.0307178,3.46866
2,1,Potentiostatic EIS,7.59286,3.46866,0.00136972,6309.57,0.0282735,32.31,0.0238958,-0.0151122,3.86054,0.36998,0.0104606,193,0.0305885,3.46866
2,1,Potentiostatic EIS,7.80537,3.46867,0.0017481,5011.87,0.0267601,25.0489,0.0242433,-0.01133,3.86846,0.389274,0.010417,153,0.0305276,3.46867
2,1,Potentiostatic EIS,8.01795,3.46868,0.00187276,3981.07,0.0259924,19.6219,0.024483,-0.00872854,3.71189,0.393151,0.0102189,122,0.0306451,3.46868
2,1,Potentiostatic EIS,8.18601,3.46872,0.00271937,3162.27,0.0254713,15.1821,0.0245823,-0.00667062,3.5044,0.367392,0.00935795,97,0.0306742,3.46872
2,1,Potentiostatic EIS,8.35637,3.46872,0.00276602,2511.88,0.025157,11.3985,0.0246608,-0.0049718,3.09522,0.414849,0.0104364,77,0.0306543,3.46872
2,1,Potentiostatic EIS,8.52506,3.46874,0.00303548,1995.26,0.0250611,8.18395,0.0248059,-0.00356749,2.90695,0.409242,0.0102561,61,0.0305725,3.46874
2,1,Potentiostatic EIS,8.64897,3.46875,0.00309575,1584.89,0.0250471,5.50267,0.0249317,-0.00240182,2.78123,0.341201,0.00854609,48,0.030286,3.46875
2,1,Potentiostatic EIS,8.77476,3.46875,0.00312159,1258.92,0.0251229,3.28012,0.0250817,-0.00143747,2.50846,0.395326,0.00993174,38,0.0301845,3.46875
2,1,Potentiostatic EIS,8.89879,3.46874,0.00279761,999.999,0.0252678,1.39063,0.0252604,-0.000613216,2.37548,0.405758,0.0102526,30,0.03,3.46874
2,1,Potentiostatic EIS,9.02162,3.46875,0.00329634,794.328,0.0254721,-0.248679,0.0254719,0.000110555,2.27341,0.397922,0.0101359,24,0.0302142,3.46875
2,1,Potentiostatic EIS,9.14561,3.46877,0.00339862,630.956,0.0257424,-1.69482,0.0257312,0.000761355,2.16602,0.391212,0.0100707,19,0.030113,3.46877
2,1,Potentiostatic EIS,9.27104,3.46879,0.00409442,501.187,0.0260417,-3.01781,0.0260056,0.001371,2.07126,0.384955,0.0100249,15,0.029929,3.46879
2,1,Potentiostatic EIS,9.35137,3.46878,0.0037111,398.107,0.0264313,-4.2175,0.0263598,0.00194383,2.01044,0.33289,0.00879873,12,0.0301427,3.46878
2,1,Potentiostatic EIS,9.43152,3.46877,0.00392135,316.228,0.0268525,-5.36001,0.0267351,0.00250839,1.83463,0.345468,0.00927668,9,0.0284605,3.46877
2,1,Potentiostatic EIS,9.51349,3.46878,0.00395582,251.189,0.0273969,-6.41616,0.0272253,0.00306158,1.65979,0.350092,0.00959143,8,0.0318486,3.46878
2,1,Potentiostatic EIS,9.60442,3.46878,0.00398486,199.526,0.0280164,-7.33548,0.0277871,0.00357711,1.46511,0.349235,0.00978432,8,0.0400951,3.46878
2,1,Potentiostatic EIS,9.70421,3.46878,0.00403514,158.489,0.0287168,-8.21305,0.0284223,0.00410232,1.24978,0.344282,0.00988666,8,0.0504766,3.46878
2,1,Potentiostatic EIS,9.81696,3.46878,0.00369863,125.892,0.0295082,-8.95063,0.0291489,0.00459099,1.09294,0.336791,0.0099381,8,0.0635464,3.46878
2,1,Potentiostatic EIS,9.94654,3.46877,0.00368826,100,0.0304126,-9.49247,0.0299962,0.00501558,0.875826,0.32746,0.0099589,8,0.08,3.46877
2,1,Potentiostatic EIS,10.0984,3.46878,0.00381274,79.4327,0.0313889,-9.82017,0.030929,0.00535358,0.717468,0.31736,0.00996159,8,0.100714,3.46878
2,1,Potentiostatic EIS,10.2779,3.46878,0.00359261,63.0956,0.0324076,-9.97517,0.0319177,0.00561369,0.61221,0.307377,0.00996136,8,0.126792,3.46878
2,1,Potentiostatic EIS,10.4935,3.46879,0.00437791,50.1186,0.0334342,-10.0146,0.0329247,0.00581414,0.496737,0.293729,0.00982058,8,0.159621,3.46879
2,1,Potentiostatic EIS,10.7517,3.46876,0.00326876,39.8107,0.034457,-9.81441,0.0339527,0.00587344,0.388374,0.285442,0.00983546,8,0.200951,3.46876
2,1,Potentiostatic EIS,10.8932,3.46877,0.00200839,31.6228,0.0354263,-9.60397,0.0349297,0.00591041,0.322496,0.280208,0.0099268,2,0.0632456,3.46877
2,1,Potentiostatic EIS,11.0554,3.46877,0.00279892,25.1188,0.0364488,-9.15517,0.0359845,0.00579933,0.274066,0.265313,0.00967022,2,0.0796217,3.46877
2,1,Potentiostatic EIS,11.255,3.46877,0.00282101,19.9526,0.0374156,-8.75486,0.0369797,0.00569493,0.233999,0.261222,0.00977376,2,0.100238,3.46877
2,1,Potentiostatic EIS,11.502,3.46878,0.00303255,15.8489,0.0383399,-8.26186,0.037942,0.00550935,0.23209,0.256706,0.00984207,2,0.126192,3.46878
2,1,Potentiostatic EIS,11.8086,3.46877,0.00277875,12.5892,0.0392113,-7.694,0.0388583,0.00524971,0.200337,0.251921,0.00987816,2,0.158866,3.46877
2,1,Potentiostatic EIS,12.1899,3.46877,0.00267213,9.99998,0.04002,-7.08798,0.0397142,0.0049382,0.208676,0.247548,0.00990685,2,0.2,3.46877
2,1,Potentiostatic EIS,12.665,3.46878,0.00262917,7.94328,0.0407347,-6.42532,0.0404789,0.00455855,0.189888,0.243888,0.00993473,2,0.251785,3.46878
2,1,Potentiostatic EIS,13.2588,3.46877,0.00220997,6.30957,0.041351,-5.75713,0.0411424,0.004148,0.17904,0.240183,0.00993179,2,0.316979,3.46877
2,1,Potentiostatic EIS,13.9994,3.46876,0.00229659,5.01186,0.0418563,-5.14244,0.0416879,0.00375167,0.184091,0.23773,0.00995047,2,0.399053,3.46876
2,1,Potentiostatic EIS,14.9265,3.46877,0.00224077,3.98106,0.0422547,-4.57462,0.0421201,0.00337013,0.18972,0.235502,0.00995105,2,0.502378,3.46877
2,1,Potentiostatic EIS,16.0906,3.46877,0.00177817,3.16227,0.0425794,-4.07349,0.0424719,0.00302467,0.174497,0.233837,0.00995663,2,0.632458,3.46877
2,1,Potentiostatic EIS,17.553,3.46877,0.00176811,2.51188,0.0428719,-3.72227,0.0427815,0.00278325,0.156933,0.232341,0.0099609,2,0.796216,3.46877
2,1,Potentiostatic EIS,19.3925,3.46875,0.00141313,1.99526,0.0431171,-3.42113,0.0430402,0.00257299,0.171059,0.23098,0.00995918,2,1.00238,3.46875
2,1,Potentiostatic EIS,21.7034,3.46876,0.000806963,1.58489,0.0433146,-3.21635,0.0432463,0.00243022,0.180297,0.229943,0.0099599,2,1.26192,3.46876
2,1,Potentiostatic EIS,24.608,3.46876,0.00095396,1.25892,0.0435097,-3.11049,0.0434456,0.00236091,0.163922,0.229097,0.00996791,2,1.58866,3.46876
2,1,Potentiostatic EIS,28.2592,3.46875,0.000908015,0.999998,0.0436787,-3.04828,0.0436169,0.00232272,0.149913,0.22824,0.00996923,2,2,3.46875
2,1,Potentiostatic EIS,32.854,3.46875,5.70364e-05,0.794327,0.0438294,-3.12827,0.0437641,0.00239184,0.164645,0.227304,0.00996262,2,2.51785,3.46875
2,1,Potentiostatic EIS,38.6336,3.46875,0.000559516,0.630956,0.044223,-3.23454,0.0441526,0.00249521,0.155799,0.225319,0.00996417,2,3.16979,3.46875
2,1,Potentiostatic EIS,45.9076,3.46875,0.000543906,0.501186,0.0442574,-3.50275,0.0441747,0.00270397,0.129807,0.225176,0.00996568,2,3.99054,3.46875
2,1,Potentiostatic EIS,53.1976,3.46875,0.000303561,0.5,0.0441895,-3.53543,0.0441054,0.00272498,0.115329,0.225552,0.00996705,2,4,3.46875