Folder: feature-extraction-paper-2024/Data/P180/P180_02/EIS_06_P180_02_4

Note: README.md
# feature-extraction-paper-2024
Repository for code used and referenced in 2024 feature extraction paper

File: 2_EIS_06_P180_02_4 20230824 135957.csv
Step number,Repeats,Step name,Elapsed Time  (s),DC Working Electrode (V),DC Current (A),Frequency (Hz),|Z| (Ohms),Phase (deg),Z' (Ohms),-Z" (Ohms),THD (%),Amplitude (A),Amplitude (V),No of Cycles,Duration of Each Frequency (s),IR Compensated DC Working Electrode (V)
2,1,Potentiostatic EIS,0,3.435,-0.00982076,1000000,1.67201,86.5432,0.100814,-1.66897,1.1815,0.00594717,0.00994359,1430,0.00143,3.435
2,1,Potentiostatic EIS,0.246294,3.4349,-0.0118492,794328,1.34527,86.0535,0.0925891,-1.34208,1.34193,0.00744832,0.0100202,1445,0.00181915,3.4349
2,1,Potentiostatic EIS,0.502302,3.43482,-0.013192,630957.375,1.07639,85.4685,0.0850429,-1.07303,1.12593,0.00926154,0.0099691,1355,0.00214753,3.43482
2,1,Potentiostatic EIS,0.773719,3.43476,-0.0145337,501187.25,0.864471,85.4824,0.0680907,-0.861785,1.43551,0.0112187,0.0096979,1385,0.00276344,3.43476
2,1,Potentiostatic EIS,1.07832,3.43468,-0.0162881,398107,0.693143,84.3864,0.0678026,-0.689818,1.41159,0.0143966,0.00997891,1400,0.00351664,3.43468
2,1,Potentiostatic EIS,1.40632,3.43459,-0.0176446,316228,0.553714,83.9593,0.0582701,-0.550639,1.47009,0.0179334,0.00993001,1370,0.00433232,3.43459
2,1,Potentiostatic EIS,1.92399,3.4345,-0.0193608,251189,0.447871,82.9532,0.0549446,-0.444488,1.65167,0.0222871,0.00998177,1340,0.00533464,3.4345
2,1,Potentiostatic EIS,2.33599,3.43444,-0.0202426,199526,0.357926,82.5092,0.0466617,-0.354872,1.84144,0.0272978,0.00977113,1355,0.00679109,3.43444
2,1,Potentiostatic EIS,2.84186,3.4343,-0.0226485,158489,0.287808,81.1863,0.0440986,-0.284409,2.00615,0.0345579,0.00994602,1360,0.00858102,3.4343
2,1,Potentiostatic EIS,3.42008,3.43419,-0.0246338,125893,0.233464,79.9922,0.0405718,-0.229911,1.93327,0.0427478,0.00998013,1370,0.0108823,3.43419
2,1,Potentiostatic EIS,4.09644,3.43406,-0.0274286,100000,0.187387,78.5897,0.0370716,-0.183684,2.11532,0.0531341,0.0099567,1370,0.0137,3.43406
2,1,Potentiostatic EIS,4.90165,3.43393,-0.0287621,79432.8,0.15204,76.8855,0.0344974,-0.148074,2.95178,0.0655297,0.00996314,1365,0.0171843,3.43393
2,1,Potentiostatic EIS,5.28248,3.43461,-0.0122742,63095.7,0.12305,74.7792,0.0323053,-0.118733,4.38429,0.0808452,0.00994798,1290,0.0204451,3.43461
2,1,Potentiostatic EIS,5.51978,3.43463,-0.0117508,50118.75,0.100452,72.3681,0.0304271,-0.0957333,5.0326,0.0997138,0.0100167,1025,0.0204514,3.43463
2,1,Potentiostatic EIS,5.74349,3.43461,-0.0114975,39810.7,0.0825705,69.2889,0.0292016,-0.0772345,5.86315,0.121206,0.010008,815,0.0204719,3.43461
2,1,Potentiostatic EIS,5.97076,3.4346,-0.0114067,31622.8,0.0684878,65.6257,0.0282646,-0.0623834,6.10079,0.147357,0.0100922,645,0.0203967,3.4346
2,1,Potentiostatic EIS,6.19345,3.43493,-0.00357304,25118.9,0.0570145,61.5786,0.0271362,-0.0501425,6.8238,0.177253,0.0101059,510,0.0203034,3.43493
2,1,Potentiostatic EIS,6.4231,3.43501,-0.00225594,19952.6,0.047944,57.1319,0.0260195,-0.0402693,6.82482,0.212065,0.0101675,405,0.0202981,3.43501
2,1,Potentiostatic EIS,6.6505,3.43505,-0.00138467,15848.9,0.0408293,51.9858,0.025145,-0.0321677,6.74138,0.246455,0.0100626,320,0.0201906,3.43505
2,1,Potentiostatic EIS,6.89178,3.43507,-0.00145038,12589.2,0.035703,46.2054,0.0247092,-0.0257714,6.54643,0.281042,0.0100339,255,0.0202554,3.43507
2,1,Potentiostatic EIS,7.24282,3.43518,-0.000472001,9999.98,0.0319865,40.3038,0.0243937,-0.0206902,2.8643,0.31271,0.0100025,307,0.0307001,3.43518
2,1,Potentiostatic EIS,7.49879,3.43525,0.000762451,7943.27,0.0291713,34.9491,0.0239105,-0.0167107,3.35171,0.347901,0.0101487,244,0.0307178,3.43525
2,1,Potentiostatic EIS,7.71023,3.43526,0.000614228,6309.57,0.0262364,29.11,0.0229224,-0.0127637,3.7653,0.375403,0.00984922,193,0.0305885,3.43526
2,1,Potentiostatic EIS,7.92196,3.43526,0.000764263,5011.87,0.0251594,21.8198,0.0233569,-0.00935144,3.70943,0.414748,0.0104348,153,0.0305276,3.43526
2,1,Potentiostatic EIS,8.13393,3.43531,0.00175543,3981.07,0.0246998,16.6499,0.0236643,-0.00707706,3.56226,0.414315,0.0102335,122,0.0306451,3.43531
2,1,Potentiostatic EIS,8.30385,3.43533,0.00241848,3162.27,0.0244258,12.4734,0.0238493,-0.00527564,3.42991,0.373675,0.00912731,97,0.0306742,3.43533
2,1,Potentiostatic EIS,8.47232,3.43534,0.00248398,2511.88,0.0243132,8.96718,0.0240161,-0.00378967,3.01791,0.430643,0.0104703,77,0.0306543,3.43534
2,1,Potentiostatic EIS,8.6388,3.43536,0.00272846,1995.26,0.0243649,6.02253,0.0242304,-0.00255636,2.75947,0.420973,0.010257,61,0.0305725,3.43536
2,1,Potentiostatic EIS,8.76294,3.43535,0.00265702,1584.89,0.0244993,3.59016,0.0244512,-0.00153413,2.81138,0.34787,0.00852258,48,0.030286,3.43535
2,1,Potentiostatic EIS,8.88642,3.43534,0.00245088,1258.92,0.0246813,1.65666,0.024671,-0.000713537,2.55938,0.403206,0.00995163,38,0.0301845,3.43534
2,1,Potentiostatic EIS,9.00906,3.43536,0.0026085,999.999,0.0249348,0.0509106,0.0249348,-2.2156e-05,2.39704,0.411813,0.0102685,30,0.03,3.43536
2,1,Potentiostatic EIS,9.13375,3.43538,0.00297961,794.328,0.0252212,-1.33738,0.0252143,0.000588653,2.33233,0.402181,0.0101435,24,0.0302142,3.43538
2,1,Potentiostatic EIS,9.25815,3.43537,0.00287887,630.956,0.0255384,-2.49882,0.0255142,0.00111345,2.26016,0.394409,0.0100726,19,0.030113,3.43537
2,1,Potentiostatic EIS,9.38237,3.43538,0.0037811,501.187,0.0258807,-3.53967,0.0258313,0.00159786,2.14394,0.387955,0.0100405,15,0.029929,3.43538
2,1,Potentiostatic EIS,9.46296,3.4354,0.00342914,398.107,0.0262652,-4.49325,0.0261845,0.00205766,2.08111,0.335255,0.00880553,12,0.0301427,3.4354
2,1,Potentiostatic EIS,9.54192,3.4354,0.00355085,316.228,0.0266996,-5.3404,0.0265837,0.002485,1.923,0.347512,0.00927845,9,0.0284605,3.4354
2,1,Potentiostatic EIS,9.62408,3.43539,0.00365198,251.189,0.027196,-6.16832,0.0270385,0.0029222,1.7256,0.352269,0.0095803,8,0.0318486,3.43539
2,1,Potentiostatic EIS,9.71196,3.43539,0.00326774,199.526,0.0277578,-6.88988,0.0275573,0.00332987,1.50525,0.351714,0.00976281,8,0.0400951,3.43539
2,1,Potentiostatic EIS,9.81181,3.43539,0.0033802,158.489,0.0283793,-7.52161,0.0281351,0.00371485,1.29536,0.347714,0.00986787,8,0.0504766,3.43539
2,1,Potentiostatic EIS,9.92458,3.43538,0.00327316,125.892,0.0290708,-8.07933,0.0287823,0.00408573,1.10468,0.341265,0.00992086,8,0.0635464,3.43538
2,1,Potentiostatic EIS,10.0551,3.43538,0.00336643,100,0.0298347,-8.57886,0.0295009,0.00445045,0.895057,0.333337,0.009945,8,0.08,3.43538
2,1,Potentiostatic EIS,10.2057,3.43539,0.00317326,79.4327,0.0306675,-8.87842,0.0303,0.00473316,0.742546,0.324489,0.00995127,8,0.100714,3.43539
2,1,Potentiostatic EIS,10.3849,3.4354,0.00336848,63.0956,0.0315239,-9.03576,0.0311327,0.00495086,0.631951,0.315558,0.00994763,8,0.126792,3.4354
2,1,Potentiostatic EIS,10.6004,3.43539,0.00398238,50.1186,0.0324165,-9.1342,0.0320054,0.00514603,0.518082,0.300741,0.00974895,8,0.159621,3.43539
2,1,Potentiostatic EIS,10.8597,3.43538,0.00274992,39.8107,0.0333182,-9.03151,0.0329051,0.00523021,0.410764,0.293612,0.0097826,8,0.200951,3.43538
2,1,Potentiostatic EIS,11.0023,3.43538,0.00131536,31.6228,0.034181,-8.90412,0.0337691,0.00529058,0.333762,0.289731,0.00990338,2,0.0632456,3.43538
2,1,Potentiostatic EIS,11.1641,3.43539,0.0022866,25.1188,0.0351172,-8.54276,0.0347276,0.00521657,0.294076,0.275077,0.00965986,2,0.0796217,3.43539
2,1,Potentiostatic EIS,11.3637,3.43539,0.00247592,19.9526,0.0359915,-8.18801,0.0356246,0.00512598,0.268332,0.271342,0.00976598,2,0.100238,3.43539
2,1,Potentiostatic EIS,11.6107,3.4354,0.00262041,15.8489,0.0368429,-7.77479,0.0365042,0.00498409,0.246055,0.26676,0.00982822,2,0.126192,3.4354
2,1,Potentiostatic EIS,11.9175,3.4354,0.00234629,12.5892,0.0376087,-7.30438,0.0373035,0.00478159,0.236235,0.26259,0.00987565,2,0.158866,3.4354
2,1,Potentiostatic EIS,12.2989,3.4354,0.00211006,9.99998,0.0383699,-6.75989,0.0381031,0.00451647,0.203035,0.257932,0.00989682,2,0.2,3.4354
2,1,Potentiostatic EIS,12.7738,3.43541,0.00195108,7.94328,0.0390305,-6.22197,0.0388006,0.00423015,0.205192,0.254432,0.00993059,2,0.251785,3.43541
2,1,Potentiostatic EIS,13.367,3.4354,0.0015778,6.30957,0.0396094,-5.65965,0.0394163,0.00390624,0.203927,0.250833,0.00993533,2,0.316979,3.4354
2,1,Potentiostatic EIS,14.1073,3.43541,0.00174843,5.01186,0.0401366,-5.1185,0.0399765,0.00358082,0.198007,0.247701,0.00994187,2,0.399053,3.43541
2,1,Potentiostatic EIS,15.0343,3.4354,0.00138295,3.98106,0.0405921,-4.62031,0.0404601,0.00326978,0.180937,0.245068,0.00994782,2,0.502378,3.4354
2,1,Potentiostatic EIS,16.1995,3.4354,0.000791574,3.16227,0.040975,-4.18174,0.0408659,0.00298791,0.179748,0.242914,0.00995341,2,0.632458,3.4354
2,1,Potentiostatic EIS,17.6623,3.4354,0.000712382,2.51188,0.0413018,-3.79033,0.0412115,0.00273028,0.189313,0.24104,0.00995539,2,0.796216,3.4354
2,1,Potentiostatic EIS,19.5006,3.4354,0.000734937,1.99526,0.0415682,-3.52468,0.0414896,0.00255555,0.180446,0.239579,0.00995886,2,1.00238,3.4354
2,1,Potentiostatic EIS,21.8109,3.43539,-0.00020672,1.58489,0.0418201,-3.35415,0.0417485,0.00244679,0.173457,0.238119,0.00995816,2,1.26192,3.43539
2,1,Potentiostatic EIS,24.7156,3.43539,-0.000118376,1.25892,0.0420516,-3.2371,0.0419845,0.00237457,0.16062,0.237005,0.00996645,2,1.58866,3.43539
2,1,Potentiostatic EIS,28.3669,3.43539,-0.000117797,0.999998,0.0422389,-3.22178,0.0421722,0.00237387,0.162196,0.23583,0.00996124,2,2,3.43539
2,1,Potentiostatic EIS,32.9618,3.43539,-0.00102561,0.794327,0.0424656,-3.27677,0.0423961,0.0024273,0.167089,0.234513,0.00995872,2,2.51785,3.43539
2,1,Potentiostatic EIS,38.7401,3.4354,-0.000558152,0.630956,0.0427124,-3.43816,0.0426355,0.00256152,0.164131,0.233318,0.00996558,2,3.16979,3.4354
2,1,Potentiostatic EIS,46.0154,3.4354,-0.000526863,0.501186,0.0429206,-3.70728,0.0428307,0.0027752,0.139238,0.232117,0.00996262,2,3.99054,3.4354
2,1,Potentiostatic EIS,53.3045,3.4354,-0.000959055,0.5,0.0429376,-3.71492,0.0428474,0.00278202,0.142988,0.231972,0.00996033,2,4,3.4354