Folder: feature-extraction-paper-2024/Data/P180/P180_02/EIS_02_P180_02_2

Note: README.md
# feature-extraction-paper-2024
Repository for code used and referenced in 2024 feature extraction paper

File: 2_EIS_02_P180_02_2 20230821 132345.csv
Step number,Repeats,Step name,Elapsed Time  (s),DC Working Electrode (V),DC Current (A),Frequency (Hz),|Z| (Ohms),Phase (deg),Z' (Ohms),-Z" (Ohms),THD (%),Amplitude (A),Amplitude (V),No of Cycles,Duration of Each Frequency (s),IR Compensated DC Working Electrode (V)
2,1,Potentiostatic EIS,0,3.6032,-0.0104836,1000000,1.30012,84.525,0.124046,-1.29418,0.943251,0.00774166,0.0100651,1430,0.00143,3.6032
2,1,Potentiostatic EIS,0.248776,3.60307,-0.0132482,794328,1.05296,84.0279,0.109554,-1.04725,1.06328,0.00923754,0.00972631,1445,0.00181915,3.60307
2,1,Potentiostatic EIS,0.526406,3.60298,-0.014824,630957.375,0.843213,83.5473,0.0947632,-0.837871,1.12476,0.0118135,0.0099613,1355,0.00214753,3.60298
2,1,Potentiostatic EIS,0.819087,3.60288,-0.0166515,501187.25,0.680821,83.3561,0.0787698,-0.676249,1.22701,0.0146963,0.0100056,1385,0.00276344,3.60288
2,1,Potentiostatic EIS,1.12686,3.60276,-0.0186486,398107,0.548332,82.34,0.0730899,-0.543439,1.45443,0.0182026,0.00998113,1400,0.00351664,3.60276
2,1,Potentiostatic EIS,1.59375,3.60268,-0.0197521,316228,0.439555,81.8106,0.0626128,-0.435073,1.67716,0.0226587,0.00995978,1370,0.00433232,3.60268
2,1,Potentiostatic EIS,1.96215,3.6026,-0.02142,251189,0.355995,80.606,0.0581063,-0.351221,1.78642,0.0272552,0.00970292,1340,0.00533464,3.6026
2,1,Potentiostatic EIS,2.40331,3.60247,-0.0233215,199526,0.285887,79.8088,0.050583,-0.281376,1.93085,0.0347554,0.00993612,1355,0.00679109,3.60247
2,1,Potentiostatic EIS,2.89929,3.60233,-0.0256919,158489,0.231629,78.3691,0.0466977,-0.226873,2.00604,0.0429779,0.00995492,1360,0.00858102,3.60233
2,1,Potentiostatic EIS,3.48372,3.60219,-0.0277235,125893,0.188399,76.7981,0.043027,-0.18342,2.12463,0.0530247,0.00998983,1370,0.0108823,3.60219
2,1,Potentiostatic EIS,4.20763,3.60203,-0.0301896,100000,0.15271,74.9423,0.039673,-0.147467,2.22015,0.0652962,0.00997142,1370,0.0137,3.60203
2,1,Potentiostatic EIS,5.30756,3.60275,-0.0148854,79432.8,0.124876,72.6426,0.0372545,-0.11919,5.2778,0.0799644,0.00998567,1365,0.0171843,3.60275
2,1,Potentiostatic EIS,5.52793,3.60274,-0.0150617,63095.7,0.102093,70.1915,0.0345971,-0.0960524,4.25769,0.0951187,0.00971124,1290,0.0204451,3.60274
2,1,Potentiostatic EIS,5.75572,3.60274,-0.0149317,50118.75,0.0844517,66.9872,0.0330153,-0.0777308,4.87553,0.115068,0.00971809,1025,0.0204514,3.60274
2,1,Potentiostatic EIS,5.9901,3.60273,-0.0147998,39810.7,0.0703934,63.3956,0.0315241,-0.0629401,5.36432,0.138502,0.00974971,815,0.0204719,3.60273
2,1,Potentiostatic EIS,6.21809,3.60274,-0.0144688,31622.8,0.0595227,59.2647,0.0304204,-0.051162,5.76738,0.165695,0.00986254,645,0.0203967,3.60274
2,1,Potentiostatic EIS,6.44799,3.60307,-0.00760067,25118.9,0.0507369,54.8285,0.0292258,-0.0414739,5.88389,0.195345,0.00991113,510,0.0203034,3.60307
2,1,Potentiostatic EIS,6.68397,3.60314,-0.00558101,19952.6,0.043641,49.859,0.0281341,-0.0333618,6.08944,0.23141,0.0100992,405,0.0202981,3.60314
2,1,Potentiostatic EIS,6.92328,3.60319,-0.00539051,15848.9,0.0381284,44.6374,0.027131,-0.0267897,5.96227,0.264662,0.0100913,320,0.0201906,3.60319
2,1,Potentiostatic EIS,7.16091,3.60324,-0.00459869,12589.2,0.0342732,38.9583,0.026651,-0.0215495,5.57857,0.292686,0.0100313,255,0.0202554,3.60324
2,1,Potentiostatic EIS,7.47273,3.60323,-0.00298042,9999.98,0.0314509,33.6144,0.0261918,-0.0174113,2.51175,0.317052,0.00997157,307,0.0307001,3.60323
2,1,Potentiostatic EIS,7.72843,3.60328,-0.00262853,7943.27,0.0292943,28.9239,0.0256402,-0.0141681,2.93997,0.345642,0.0101253,244,0.0307178,3.60328
2,1,Potentiostatic EIS,7.94158,3.60327,-0.00295733,6309.57,0.0268855,23.6296,0.0246313,-0.0107763,3.29866,0.379386,0.0102,193,0.0305885,3.60327
2,1,Potentiostatic EIS,8.15355,3.60331,-0.00206328,5011.87,0.0262075,17.4014,0.025008,-0.00783773,3.31408,0.397264,0.0104113,153,0.0305276,3.60331
2,1,Potentiostatic EIS,8.36413,3.60335,-0.00137834,3981.07,0.0259302,13.2511,0.0252398,-0.0059437,3.24005,0.393445,0.0102021,122,0.0306451,3.60335
2,1,Potentiostatic EIS,8.53167,3.60337,-0.000741489,3162.27,0.0257582,9.87944,0.0253763,-0.00441949,3.1048,0.376041,0.00968616,97,0.0306742,3.60337
2,1,Potentiostatic EIS,8.70128,3.60335,-0.00124069,2511.88,0.0256905,7.05058,0.0254962,-0.00315339,2.86047,0.405383,0.0104145,77,0.0306543,3.60335
2,1,Potentiostatic EIS,8.868,3.60337,-0.000909251,1995.26,0.0257136,4.67499,0.0256281,-0.00209575,2.65935,0.397327,0.0102167,61,0.0305725,3.60337
2,1,Potentiostatic EIS,8.99068,3.60338,-0.00081172,1584.89,0.0258224,2.68135,0.0257941,-0.00120801,2.62845,0.346492,0.00894724,48,0.030286,3.60338
2,1,Potentiostatic EIS,9.11499,3.60338,-0.000638016,1258.92,0.0259689,1.02805,0.0259648,-0.00046593,2.44769,0.399466,0.0103737,38,0.0301845,3.60338
2,1,Potentiostatic EIS,9.23846,3.60338,-0.000639908,999.999,0.0261824,-0.440255,0.0261816,0.000201181,2.39352,0.391378,0.0102472,30,0.03,3.60338
2,1,Potentiostatic EIS,9.36308,3.60341,-6.39974e-05,794.328,0.0264052,-1.71697,0.0263934,0.000791159,2.32296,0.383157,0.0101173,24,0.0302142,3.60341
2,1,Potentiostatic EIS,9.48707,3.6034,-0.000118516,630.956,0.0266902,-2.89099,0.0266562,0.00134615,2.23531,0.377026,0.0100629,19,0.030113,3.6034
2,1,Potentiostatic EIS,9.61056,3.6034,0.000312204,501.187,0.0270088,-3.98725,0.0269435,0.00187804,2.14166,0.371098,0.0100229,15,0.029929,3.6034
2,1,Potentiostatic EIS,9.69112,3.60341,9.20185e-05,398.107,0.0274131,-5.05432,0.0273065,0.0024151,2.05581,0.325212,0.00891508,12,0.0301427,3.60341
2,1,Potentiostatic EIS,9.77047,3.60341,0.000412581,316.228,0.02784,-6.10126,0.0276823,0.002959,1.83956,0.336328,0.00936337,9,0.0284605,3.60341
2,1,Potentiostatic EIS,9.85108,3.60341,0.000121461,251.189,0.0283762,-7.12137,0.0281573,0.00351785,1.66247,0.339883,0.00964461,8,0.0318486,3.60341
2,1,Potentiostatic EIS,9.94024,3.60341,0.000333527,199.526,0.029022,-8.07628,0.0287342,0.00407734,1.48593,0.338182,0.00981473,8,0.0400951,3.60341
2,1,Potentiostatic EIS,10.0401,3.60341,0.000413136,158.489,0.0297681,-8.98803,0.0294026,0.00465062,1.24667,0.333091,0.00991549,8,0.0504766,3.60341
2,1,Potentiostatic EIS,10.1535,3.60341,0.000375718,125.892,0.0306568,-9.81889,0.0302077,0.00522804,1.06623,0.325187,0.00996918,8,0.0635464,3.60341
2,1,Potentiostatic EIS,10.2828,3.6034,0.000208287,100,0.0316531,-10.5004,0.031123,0.00576853,0.878771,0.315332,0.00998123,8,0.08,3.6034
2,1,Potentiostatic EIS,10.4357,3.60341,0.000576763,79.4327,0.0327776,-10.9342,0.0321826,0.00621733,0.701975,0.304645,0.00998555,8,0.100714,3.60341
2,1,Potentiostatic EIS,10.6147,3.60341,0.000349592,63.0956,0.0339479,-11.13,0.0333094,0.00655315,0.590814,0.293874,0.00997638,8,0.126792,3.60341
2,1,Potentiostatic EIS,10.8288,3.60342,0.000824814,50.1186,0.0351564,-11.2042,0.0344864,0.0068311,0.490189,0.279439,0.00982408,8,0.159621,3.60342
2,1,Potentiostatic EIS,11.0887,3.6034,-0.000336701,39.8107,0.036371,-10.9889,0.0357042,0.00693298,0.381117,0.270545,0.00984,8,0.200951,3.6034
2,1,Potentiostatic EIS,11.2322,3.6034,-0.00192409,31.6228,0.0374936,-10.8076,0.0368286,0.00703052,0.352747,0.264663,0.0099233,2,0.0632456,3.6034
2,1,Potentiostatic EIS,11.3949,3.60341,-0.000330046,25.1188,0.0387066,-10.3509,0.0380767,0.00695464,0.274545,0.249948,0.00967461,2,0.0796217,3.60341
2,1,Potentiostatic EIS,11.595,3.60342,-0.000272371,19.9526,0.0398214,-9.9974,0.0392167,0.00691313,0.223942,0.245497,0.00977597,2,0.100238,3.60342
2,1,Potentiostatic EIS,11.8421,3.60342,-0.000975269,15.8489,0.040889,-9.53779,0.0403237,0.00677522,0.223849,0.240638,0.00983944,2,0.126192,3.60342
2,1,Potentiostatic EIS,12.1485,3.60341,-0.000905361,12.5892,0.0419833,-9.10979,0.0414538,0.00664709,0.209685,0.235434,0.00988426,2,0.158866,3.60341
2,1,Potentiostatic EIS,12.5295,3.60342,-0.000608954,9.99998,0.0430487,-8.6007,0.0425646,0.00643781,0.206062,0.230363,0.0099168,2,0.2,3.60342
2,1,Potentiostatic EIS,13.0043,3.60341,-0.000634737,7.94328,0.0440717,-8.00507,0.0436423,0.00613746,0.197622,0.225251,0.0099272,2,0.251785,3.60341
2,1,Potentiostatic EIS,13.5972,3.60341,-0.000819718,6.30957,0.0450209,-7.33869,0.0446521,0.00575072,0.210544,0.22098,0.00994872,2,0.316979,3.60341
2,1,Potentiostatic EIS,14.3377,3.60342,-0.000937627,5.01186,0.0458625,-6.64646,0.0455543,0.00530824,0.212003,0.216982,0.00995132,2,0.399053,3.60342
2,1,Potentiostatic EIS,15.2645,3.60342,-0.000748274,3.98106,0.0465786,-5.93754,0.0463287,0.00481829,0.192978,0.213835,0.00996016,2,0.502378,3.60342
2,1,Potentiostatic EIS,16.4296,3.60341,-0.000844614,3.16227,0.0471425,-5.27643,0.0469427,0.00433527,0.160307,0.211138,0.00995358,2,0.632458,3.60341
2,1,Potentiostatic EIS,17.8922,3.60341,-0.00118226,2.51188,0.047629,-4.70066,0.0474688,0.00390319,0.151857,0.209278,0.00996772,2,0.796216,3.60341
2,1,Potentiostatic EIS,19.7309,3.60342,-0.00098055,1.99526,0.0479994,-4.1851,0.0478714,0.00350294,0.173354,0.207617,0.00996552,2,1.00238,3.60342
2,1,Potentiostatic EIS,22.0411,3.60342,-0.000949577,1.58489,0.0483308,-3.77718,0.0482258,0.00318386,0.183743,0.206268,0.00996906,2,1.26192,3.60342
2,1,Potentiostatic EIS,24.9454,3.60342,-0.00140058,1.25892,0.0485966,-3.5066,0.0485057,0.00297234,0.142801,0.205211,0.00997255,2,1.58866,3.60342
2,1,Potentiostatic EIS,28.5979,3.60341,-0.00114229,0.999998,0.0487995,-3.29058,0.048719,0.00280108,0.155758,0.204187,0.00996423,2,2,3.60341
2,1,Potentiostatic EIS,33.1929,3.6034,-0.00112925,0.794327,0.0490359,-3.20667,0.0489591,0.00274296,0.15725,0.203406,0.00997421,2,2.51785,3.6034
2,1,Potentiostatic EIS,38.9716,3.60341,-0.00147352,0.630956,0.0492186,-3.1929,0.0491422,0.00274137,0.150565,0.202427,0.00996318,2,3.16979,3.60341
2,1,Potentiostatic EIS,46.2457,3.60342,-0.00101722,0.501186,0.049495,-3.27975,0.0494139,0.00283167,0.176559,0.201381,0.00996736,2,3.99054,3.60342
2,1,Potentiostatic EIS,53.5361,3.60342,-0.00104236,0.5,0.0494781,-3.27963,0.0493971,0.0028306,0.170925,0.201419,0.00996583,2,4,3.60342