Folder: feature-extraction-paper-2024/Data/P180/P180_02/EIS_02_P180_02_4

Note: README.md
# feature-extraction-paper-2024
Repository for code used and referenced in 2024 feature extraction paper

File: 2_EIS_02_P180_02_4 20230821 133032.csv
Step number,Repeats,Step name,Elapsed Time  (s),DC Working Electrode (V),DC Current (A),Frequency (Hz),|Z| (Ohms),Phase (deg),Z' (Ohms),-Z" (Ohms),THD (%),Amplitude (A),Amplitude (V),No of Cycles,Duration of Each Frequency (s),IR Compensated DC Working Electrode (V)
2,1,Potentiostatic EIS,0,3.6075,-0.010766,1000000,1.9011,87.0869,0.0966167,-1.89864,0.932701,0.00529152,0.0100594,1430,0.00143,3.6075
2,1,Potentiostatic EIS,0.246836,3.60743,-0.0122962,794328,1.5279,86.5162,0.0928443,-1.52507,1.13051,0.00653959,0.00999192,1445,0.00181915,3.60743
2,1,Potentiostatic EIS,0.506945,3.60737,-0.013239,630957.375,1.22125,86.0122,0.0849299,-1.21829,1.05401,0.00815255,0.00995628,1355,0.00214753,3.60737
2,1,Potentiostatic EIS,0.774589,3.60729,-0.0147819,501187.25,0.979386,85.8958,0.0700951,-0.976875,1.09315,0.0101614,0.00995195,1385,0.00276344,3.60729
2,1,Potentiostatic EIS,1.0803,3.60721,-0.0159875,398107,0.784612,84.9875,0.0685543,-0.781611,1.17517,0.0127104,0.00997272,1400,0.00351664,3.60721
2,1,Potentiostatic EIS,1.40938,3.60715,-0.0169989,316228,0.626265,84.5366,0.0596267,-0.62342,1.3739,0.0158613,0.0099334,1370,0.00433232,3.60715
2,1,Potentiostatic EIS,1.77134,3.60706,-0.018686,251189,0.504859,83.5844,0.0564123,-0.501697,1.55237,0.0197727,0.00998241,1340,0.00533464,3.60706
2,1,Potentiostatic EIS,2.29247,3.60696,-0.0199257,199526,0.403415,83.0527,0.0487956,-0.400453,1.78449,0.0245727,0.00991299,1355,0.00679109,3.60696
2,1,Potentiostatic EIS,2.7552,3.6069,-0.021393,158489,0.324214,81.7942,0.0462749,-0.320895,1.73511,0.0299289,0.00970338,1360,0.00858102,3.6069
2,1,Potentiostatic EIS,3.33807,3.60675,-0.0238884,125893,0.262196,80.7674,0.0420676,-0.258799,1.83819,0.0381296,0.00999748,1370,0.0108823,3.60675
2,1,Potentiostatic EIS,4.00666,3.60661,-0.025849,100000,0.210654,79.2377,0.0393364,-0.206949,1.96663,0.047302,0.00996437,1370,0.0137,3.60661
2,1,Potentiostatic EIS,4.86969,3.60653,-0.026775,79432.8,0.170418,77.4658,0.0369844,-0.166356,2.92087,0.0584886,0.00996753,1365,0.0171843,3.60653
2,1,Potentiostatic EIS,5.24684,3.60717,-0.013238,63095.7,0.137801,75.5633,0.0343553,-0.13345,4.28484,0.0722935,0.00996211,1290,0.0204451,3.60717
2,1,Potentiostatic EIS,5.46964,3.60716,-0.0130725,50118.75,0.112176,73.0709,0.0326644,-0.107315,4.80814,0.0895337,0.0100437,1025,0.0204514,3.60716
2,1,Potentiostatic EIS,5.69035,3.60715,-0.0134616,39810.7,0.0920822,70.1151,0.03132,-0.086592,5.72806,0.109207,0.0100562,815,0.0204719,3.60715
2,1,Potentiostatic EIS,5.91486,3.60714,-0.0132866,31622.8,0.0761686,66.4887,0.0303859,-0.0698452,6.24557,0.133049,0.0101344,645,0.0203967,3.60714
2,1,Potentiostatic EIS,6.13544,3.6075,-0.00600222,25118.9,0.063456,62.5634,0.0292384,-0.0563185,6.61888,0.159863,0.010144,510,0.0203034,3.6075
2,1,Potentiostatic EIS,6.35702,3.60755,-0.00484819,19952.6,0.0531661,58.0341,0.0281469,-0.0451042,6.93,0.190661,0.0101364,405,0.0202981,3.60755
2,1,Potentiostatic EIS,6.57925,3.60759,-0.00388227,15848.9,0.0450996,52.9995,0.0271419,-0.0360179,6.96271,0.222803,0.0100481,320,0.0201906,3.60759
2,1,Potentiostatic EIS,6.80419,3.60763,-0.00318195,12589.2,0.0393472,47.1956,0.0267363,-0.0288682,6.64773,0.25457,0.0100166,255,0.0202554,3.60763
2,1,Potentiostatic EIS,7.11226,3.60759,-0.00251791,9999.98,0.0350188,41.4147,0.0262621,-0.0231651,2.96923,0.285074,0.00998297,307,0.0307001,3.60759
2,1,Potentiostatic EIS,7.32477,3.60764,-0.0018917,7943.27,0.0318012,35.9382,0.0257478,-0.0186645,3.56515,0.287349,0.00913804,244,0.0307178,3.60764
2,1,Potentiostatic EIS,7.53618,3.60764,-0.00219343,6309.57,0.0285887,30.0533,0.0247453,-0.0143174,3.85899,0.371855,0.0106309,193,0.0305885,3.60764
2,1,Potentiostatic EIS,7.74951,3.60766,-0.00163149,5011.87,0.0273163,22.8114,0.0251798,-0.0105905,3.85626,0.380867,0.0104039,153,0.0305276,3.60766
2,1,Potentiostatic EIS,7.96246,3.60768,-0.00101512,3981.07,0.0267345,17.5263,0.0254935,-0.00805092,3.702,0.381488,0.0101989,122,0.0306451,3.60768
2,1,Potentiostatic EIS,8.13089,3.60771,-0.000569201,3162.27,0.0263688,13.2234,0.0256696,-0.00603181,3.46971,0.369201,0.00973537,97,0.0306742,3.60771
2,1,Potentiostatic EIS,8.30043,3.60771,-0.000495146,2511.88,0.0261907,9.6236,0.0258221,-0.00437842,3.16383,0.398013,0.0104242,77,0.0306543,3.60771
2,1,Potentiostatic EIS,8.47142,3.60774,-0.000256005,1995.26,0.0262075,6.57843,0.026035,-0.00300242,2.87512,0.389882,0.0102178,61,0.0305725,3.60774
2,1,Potentiostatic EIS,8.59744,3.60774,-6.99599e-05,1584.89,0.0263049,4.06897,0.0262386,-0.00186652,2.80577,0.340812,0.00896503,48,0.030286,3.60774
2,1,Potentiostatic EIS,8.72301,3.60773,4.61832e-05,1258.92,0.0264917,2.0082,0.0264755,-0.000928338,2.59311,0.393045,0.0104124,38,0.0301845,3.60773
2,1,Potentiostatic EIS,8.84692,3.60772,-0.000329428,999.999,0.0267632,0.315463,0.0267628,-0.000147354,2.47045,0.383085,0.0102526,30,0.03,3.60772
2,1,Potentiostatic EIS,8.97134,3.60777,0.000422975,794.328,0.0270369,-1.10622,0.0270319,0.000521974,2.37349,0.374667,0.0101298,24,0.0302142,3.60777
2,1,Potentiostatic EIS,9.0952,3.60775,0.000102704,630.956,0.0273733,-2.32047,0.0273509,0.00110831,2.28236,0.367534,0.0100606,19,0.030113,3.60775
2,1,Potentiostatic EIS,9.21955,3.60775,0.000769531,501.187,0.0277335,-3.42255,0.0276841,0.00165567,2.1724,0.36202,0.0100401,15,0.029929,3.60775
2,1,Potentiostatic EIS,9.29909,3.60778,0.000835242,398.107,0.0281553,-4.47512,0.0280694,0.00219685,2.11928,0.316488,0.00891082,12,0.0301427,3.60778
2,1,Potentiostatic EIS,9.37743,3.60777,0.000875076,316.228,0.0285684,-5.37568,0.0284428,0.00267645,1.91114,0.326878,0.0093384,9,0.0284605,3.60777
2,1,Potentiostatic EIS,9.45784,3.60778,0.000958693,251.189,0.0290943,-6.26964,0.0289203,0.00317732,1.70556,0.330829,0.00962523,8,0.0318486,3.60778
2,1,Potentiostatic EIS,9.54773,3.60778,0.00117592,199.526,0.0297143,-7.11589,0.0294855,0.00368091,1.52721,0.329739,0.00979798,8,0.0400951,3.60778
2,1,Potentiostatic EIS,9.6477,3.60778,0.00113312,158.489,0.0303721,-7.87966,0.0300853,0.00416379,1.27465,0.325591,0.00988889,8,0.0504766,3.60778
2,1,Potentiostatic EIS,9.76143,3.60778,0.00124432,125.892,0.0311491,-8.612,0.0307979,0.00466434,1.08852,0.319113,0.00994008,8,0.0635464,3.60778
2,1,Potentiostatic EIS,9.89037,3.60776,0.000708163,100,0.0320215,-9.23708,0.0316062,0.00514009,0.883731,0.311078,0.00996118,8,0.08,3.60776
2,1,Potentiostatic EIS,10.042,3.60777,0.000893735,79.4327,0.03299,-9.66925,0.0325214,0.00554102,0.726153,0.302088,0.0099659,8,0.100714,3.60777
2,1,Potentiostatic EIS,10.2223,3.60777,0.000630572,63.0956,0.034038,-9.90575,0.0335306,0.00585549,0.598982,0.292728,0.00996386,8,0.126792,3.60777
2,1,Potentiostatic EIS,10.4365,3.60779,0.00149466,50.1186,0.0351027,-10.0404,0.0345651,0.00611989,0.497634,0.279441,0.00980913,8,0.159621,3.60779
2,1,Potentiostatic EIS,10.6954,3.60776,0.000427997,39.8107,0.036197,-9.96659,0.0356508,0.00626477,0.40396,0.271645,0.00983276,8,0.200951,3.60776
2,1,Potentiostatic EIS,10.8397,3.60777,-0.00127417,31.6228,0.0372051,-9.89923,0.0366511,0.00639614,0.353868,0.266696,0.00992258,2,0.0632456,3.60777
2,1,Potentiostatic EIS,11.0023,3.60778,1.03696e-05,25.1188,0.0383512,-9.52593,0.0378224,0.0063469,0.291772,0.252108,0.00966845,2,0.0796217,3.60778
2,1,Potentiostatic EIS,11.2025,3.60777,-0.000130509,19.9526,0.0393774,-9.2095,0.0388698,0.00630215,0.2526,0.248319,0.00977806,2,0.100238,3.60777
2,1,Potentiostatic EIS,11.4497,3.60778,0.000123605,15.8489,0.0404046,-8.86182,0.0399223,0.00622442,0.252949,0.243629,0.00984376,2,0.126192,3.60778
2,1,Potentiostatic EIS,11.7563,3.60777,9.60889e-06,12.5892,0.0414052,-8.40342,0.0409607,0.00605104,0.210496,0.238653,0.0098815,2,0.158866,3.60777
2,1,Potentiostatic EIS,12.1378,3.60776,-0.000149423,9.99998,0.042397,-7.90312,0.0419944,0.00582953,0.203855,0.23365,0.00990606,2,0.2,3.60776
2,1,Potentiostatic EIS,12.6128,3.60778,-7.33126e-05,7.94328,0.0433054,-7.35049,0.0429495,0.00554043,0.194377,0.229395,0.00993404,2,0.251785,3.60778
2,1,Potentiostatic EIS,13.2062,3.60778,-0.000347942,6.30957,0.0441649,-6.74604,0.0438591,0.00518799,0.186414,0.225077,0.00994053,2,0.316979,3.60778
2,1,Potentiostatic EIS,13.9464,3.60778,-0.000165511,5.01186,0.0449164,-6.12373,0.0446601,0.0047915,0.19292,0.221747,0.00996009,2,0.399053,3.60778
2,1,Potentiostatic EIS,14.8744,3.60778,-0.000163945,3.98106,0.0455376,-5.51745,0.0453266,0.00437839,0.180682,0.21877,0.00996223,2,0.502378,3.60778
2,1,Potentiostatic EIS,16.0391,3.60778,-0.000544659,3.16227,0.0460636,-4.92767,0.0458933,0.00395677,0.157178,0.216262,0.00996183,2,0.632458,3.60778
2,1,Potentiostatic EIS,17.5017,3.60778,-0.000484792,2.51188,0.0465161,-4.38432,0.04638,0.00355598,0.185039,0.214195,0.0099635,2,0.796216,3.60778
2,1,Potentiostatic EIS,19.34,3.60778,-0.000437233,1.99526,0.0468664,-3.94288,0.0467554,0.00322262,0.191382,0.212663,0.00996676,2,1.00238,3.60778
2,1,Potentiostatic EIS,21.6498,3.60778,-0.000700695,1.58489,0.0471504,-3.5822,0.0470582,0.00294597,0.162863,0.211396,0.00996741,2,1.26192,3.60778
2,1,Potentiostatic EIS,24.5543,3.60778,-0.00073703,1.25892,0.0473827,-3.30925,0.0473036,0.00273518,0.155799,0.210385,0.00996862,2,1.58866,3.60778
2,1,Potentiostatic EIS,28.2056,3.60779,-0.000458108,0.999998,0.0476024,-3.12994,0.0475314,0.00259912,0.158808,0.209363,0.00996617,2,2,3.60779
2,1,Potentiostatic EIS,32.8004,3.60778,-0.00111876,0.794327,0.0478007,-3.04159,0.0477334,0.00253634,0.148765,0.208566,0.00996961,2,2.51785,3.60778
2,1,Potentiostatic EIS,38.5794,3.60779,-0.000685891,0.630956,0.0479739,-3.05072,0.0479059,0.00255316,0.156516,0.207678,0.0099631,2,3.16979,3.60779
2,1,Potentiostatic EIS,45.8541,3.60779,-0.000483434,0.501186,0.0481347,-3.13752,0.0480626,0.00263454,0.1644,0.20698,0.00996289,2,3.99054,3.60779
2,1,Potentiostatic EIS,53.1441,3.60779,-0.000772914,0.5,0.0480716,-3.1581,0.0479986,0.00264833,0.149012,0.207176,0.00995924,2,4,3.60779