Folder: feature-extraction-paper-2024/Data/P180/P180_02/EIS_02_P180_02_5

Note: README.md
# feature-extraction-paper-2024
Repository for code used and referenced in 2024 feature extraction paper

File: 2_EIS_02_P180_02_5 20230821 133519.csv
Step number,Repeats,Step name,Elapsed Time  (s),DC Working Electrode (V),DC Current (A),Frequency (Hz),|Z| (Ohms),Phase (deg),Z' (Ohms),-Z" (Ohms),THD (%),Amplitude (A),Amplitude (V),No of Cycles,Duration of Each Frequency (s),IR Compensated DC Working Electrode (V)
2,1,Potentiostatic EIS,0,3.60606,-0.0136347,1000000,3.45097,87.693,0.138915,-3.44817,1.12928,0.00288286,0.00994898,1430,0.00143,3.60606
2,1,Potentiostatic EIS,0.230642,3.60603,-0.014243,794328,2.75724,87.4059,0.124792,-2.75441,1.16699,0.0035891,0.00989618,1445,0.00181915,3.60603
2,1,Potentiostatic EIS,0.469848,3.60599,-0.0145573,630957.375,2.19997,86.7993,0.122831,-2.19654,1.20762,0.00448906,0.00987577,1355,0.00214753,3.60599
2,1,Potentiostatic EIS,0.740203,3.60593,-0.015462,501187.25,1.75456,86.7899,0.098252,-1.7518,1.14372,0.00567967,0.00996535,1385,0.00276344,3.60593
2,1,Potentiostatic EIS,1.02574,3.60591,-0.0156147,398107,1.40808,86.0995,0.0957825,-1.40482,1.13774,0.00707663,0.00996444,1400,0.00351664,3.60591
2,1,Potentiostatic EIS,1.32693,3.60589,-0.0162087,316228,1.12219,85.724,0.0836707,-1.11906,1.23503,0.00885223,0.00993388,1370,0.00433232,3.60589
2,1,Potentiostatic EIS,1.66185,3.60584,-0.0165572,251189,0.903324,84.9133,0.080092,-0.899767,1.23053,0.0110641,0.00999452,1340,0.00533464,3.60584
2,1,Potentiostatic EIS,2.07797,3.60579,-0.0175303,199526,0.719335,84.8217,0.0649236,-0.716399,1.29054,0.0137871,0.00991753,1355,0.00679109,3.60579
2,1,Potentiostatic EIS,2.53497,3.60577,-0.0176766,158489,0.581595,83.8596,0.06221,-0.578259,1.39625,0.0171333,0.00996468,1360,0.00858102,3.60577
2,1,Potentiostatic EIS,3.06422,3.60568,-0.0191313,125893,0.467238,83.1665,0.0555943,-0.463919,1.51652,0.0213831,0.00999101,1370,0.0108823,3.60568
2,1,Potentiostatic EIS,3.75789,3.60561,-0.0199413,100000,0.373953,82.2157,0.0506497,-0.370507,1.76421,0.0266256,0.00995675,1370,0.0137,3.60561
2,1,Potentiostatic EIS,4.42898,3.60554,-0.0206798,79432.8,0.302593,81.1997,0.0462942,-0.299031,1.94999,0.0330247,0.00999308,1365,0.0171843,3.60554
2,1,Potentiostatic EIS,4.67869,3.6055,-0.0223363,63095.7,0.243918,80.0767,0.0420345,-0.240269,1.77384,0.0409411,0.00998623,1290,0.0204451,3.6055
2,1,Potentiostatic EIS,4.93575,3.60541,-0.0233332,50118.75,0.197453,78.7236,0.0386104,-0.193641,1.70488,0.0500431,0.00988174,1025,0.0204514,3.60541
2,1,Potentiostatic EIS,5.18705,3.60548,-0.0225152,39810.7,0.159527,76.7806,0.0364808,-0.1553,1.88398,0.0623084,0.00993988,815,0.0204719,3.60548
2,1,Potentiostatic EIS,5.56569,3.60588,-0.0128164,31622.8,0.130395,74.7619,0.0342718,-0.12581,4.38854,0.0767252,0.0100046,645,0.0203967,3.60588
2,1,Potentiostatic EIS,5.76856,3.60622,-0.00451853,25118.9,0.106507,72.4399,0.0321337,-0.101544,5.20185,0.0917998,0.00977783,510,0.0203034,3.60622
2,1,Potentiostatic EIS,5.97064,3.60627,-0.004582,19952.6,0.0871098,69.5249,0.030471,-0.0816066,5.91258,0.113039,0.00984721,405,0.0202981,3.60627
2,1,Potentiostatic EIS,6.17896,3.60623,-0.00426663,15848.9,0.0713584,66.404,0.0285638,-0.0653922,6.58948,0.138259,0.009866,320,0.0201906,3.60623
2,1,Potentiostatic EIS,6.38243,3.60629,-0.00373276,12589.2,0.0595224,62.3289,0.027642,-0.0527147,6.89466,0.168281,0.0100165,255,0.0202554,3.60629
2,1,Potentiostatic EIS,6.64511,3.60619,-0.00418004,9999.98,0.0502077,57.9104,0.0266726,-0.0425368,3.35479,0.198552,0.00996883,307,0.0307001,3.60619
2,1,Potentiostatic EIS,6.85567,3.60622,-0.00396846,7943.27,0.042955,53.1867,0.0257391,-0.0343894,4.1475,0.245618,0.0105505,244,0.0307178,3.60622
2,1,Potentiostatic EIS,7.06657,3.60623,-0.0035705,6309.57,0.036471,47.9623,0.0244217,-0.0270872,4.79608,0.286823,0.0104607,193,0.0305885,3.60623
2,1,Potentiostatic EIS,7.27936,3.60626,-0.00317659,5011.87,0.0322569,40.5371,0.0245148,-0.0209651,4.96585,0.319317,0.0103002,153,0.0305276,3.60626
2,1,Potentiostatic EIS,7.4913,3.60627,-0.00269106,3981.07,0.0295783,33.9466,0.024537,-0.0165171,4.81,0.343259,0.010153,122,0.0306451,3.60627
2,1,Potentiostatic EIS,7.65926,3.60629,-0.00240401,3162.27,0.0276931,27.845,0.0244867,-0.012935,4.50919,0.348297,0.00964544,97,0.0306742,3.60629
2,1,Potentiostatic EIS,7.83071,3.60629,-0.0024047,2511.88,0.0264458,22.2711,0.024473,-0.0100227,4.03177,0.394626,0.0104362,77,0.0306543,3.60629
2,1,Potentiostatic EIS,7.99946,3.6063,-0.00257304,1995.26,0.0256568,17.2731,0.0244997,-0.0076182,3.5256,0.399708,0.0102552,61,0.0305725,3.6063
2,1,Potentiostatic EIS,8.16863,3.60629,-0.00246213,1584.89,0.0252317,13.0001,0.024585,-0.00567594,3.20742,0.400922,0.0101159,48,0.030286,3.60629
2,1,Potentiostatic EIS,8.294,3.60631,-0.00204999,1258.92,0.0249963,9.36012,0.0246635,-0.00406539,2.74398,0.380293,0.00950594,38,0.0301845,3.60631
2,1,Potentiostatic EIS,8.41802,3.60632,-0.00191776,999.999,0.0249613,6.30032,0.0248106,-0.00273925,2.56424,0.411716,0.010277,30,0.03,3.60632
2,1,Potentiostatic EIS,8.54229,3.60632,-0.00156218,794.328,0.0250456,3.66719,0.0249943,-0.00160194,2.33432,0.406238,0.0101745,24,0.0302142,3.60632
2,1,Potentiostatic EIS,8.66615,3.60633,-0.00157296,630.956,0.0252229,1.41385,0.0252153,-0.000622345,2.14258,0.399851,0.0100854,19,0.030113,3.60633
2,1,Potentiostatic EIS,8.79024,3.60632,-0.00120143,501.187,0.0254701,-0.581286,0.0254688,0.000258399,2.00701,0.394898,0.0100581,15,0.029929,3.60632
2,1,Potentiostatic EIS,8.86946,3.60632,-0.0014162,398.107,0.0258046,-2.30629,0.0257836,0.00103841,1.95488,0.33543,0.00865562,12,0.0301427,3.60632
2,1,Potentiostatic EIS,8.94933,3.60632,-0.00110525,316.228,0.0261862,-3.90512,0.0261254,0.00178339,1.78697,0.350517,0.00917868,9,0.0284605,3.60632
2,1,Potentiostatic EIS,9.03142,3.60633,-0.000965505,251.189,0.0266996,-5.30441,0.0265852,0.0024683,1.62792,0.356847,0.00952766,8,0.0318486,3.60633
2,1,Potentiostatic EIS,9.12208,3.60632,-0.000974789,199.526,0.0273061,-6.56073,0.0271273,0.0031199,1.48178,0.356938,0.0097466,8,0.0400951,3.60632
2,1,Potentiostatic EIS,9.22245,3.60632,-0.00124121,158.489,0.0279881,-7.67086,0.0277377,0.00373592,1.24432,0.352567,0.00986768,8,0.0504766,3.60632
2,1,Potentiostatic EIS,9.33563,3.60633,-0.000650999,125.892,0.0287814,-8.62062,0.0284562,0.00431407,1.10209,0.345042,0.00993078,8,0.0635464,3.60633
2,1,Potentiostatic EIS,9.46545,3.60633,-0.000695549,100,0.0296899,-9.40108,0.0292911,0.00484969,0.873149,0.335469,0.00996005,8,0.08,3.60633
2,1,Potentiostatic EIS,9.61752,3.60633,-0.000599653,79.4327,0.0306671,-9.89007,0.0302114,0.00526734,0.740462,0.324983,0.0099663,8,0.100714,3.60633
2,1,Potentiostatic EIS,9.79707,3.60633,-0.00106912,63.0956,0.0316991,-10.1607,0.0312019,0.00559203,0.612445,0.314376,0.00996544,8,0.126792,3.60633
2,1,Potentiostatic EIS,10.0116,3.60633,-0.000382949,50.1186,0.0327411,-10.329,0.0322105,0.00587048,0.512465,0.300006,0.00982252,8,0.159621,3.60633
2,1,Potentiostatic EIS,10.2712,3.60632,-0.00159901,39.8107,0.033776,-10.2244,0.0332396,0.00599535,0.394572,0.291237,0.00983681,8,0.200951,3.60632
2,1,Potentiostatic EIS,10.4152,3.60632,-0.00329075,31.6228,0.0347279,-10.1434,0.0341851,0.00611603,0.340952,0.285687,0.00992143,2,0.0632456,3.60632
2,1,Potentiostatic EIS,10.5776,3.60632,-0.00171387,25.1188,0.0357901,-9.83373,0.0352642,0.00611257,0.271634,0.270383,0.00967684,2,0.0796217,3.60632
2,1,Potentiostatic EIS,10.7772,3.60632,-0.00178551,19.9526,0.0367535,-9.65075,0.0362333,0.00616143,0.244451,0.265905,0.00977287,2,0.100238,3.60632
2,1,Potentiostatic EIS,11.0241,3.60633,-0.001754,15.8489,0.0377556,-9.373,0.0372515,0.00614891,0.248006,0.260664,0.0098415,2,0.126192,3.60633
2,1,Potentiostatic EIS,11.3305,3.60632,-0.00189267,12.5892,0.03873,-9.09244,0.0382434,0.00612042,0.244151,0.255103,0.00988015,2,0.158866,3.60632
2,1,Potentiostatic EIS,11.7119,3.60633,-0.00175494,9.99998,0.039729,-8.74196,0.0392674,0.0060382,0.199448,0.249422,0.00990927,2,0.2,3.60633
2,1,Potentiostatic EIS,12.1871,3.60632,-0.00217047,7.94328,0.0407229,-8.29297,0.0402971,0.00587365,0.193797,0.243825,0.00992926,2,0.251785,3.60632
2,1,Potentiostatic EIS,12.7799,3.60633,-0.00200077,6.30957,0.0416833,-7.74371,0.0413032,0.00561651,0.181391,0.238368,0.00993598,2,0.316979,3.60633
2,1,Potentiostatic EIS,13.5201,3.60632,-0.00181866,5.01186,0.0425585,-7.10227,0.0422319,0.00526197,0.198404,0.233658,0.00994411,2,0.399053,3.60632
2,1,Potentiostatic EIS,14.4478,3.60632,-0.00196581,3.98106,0.0433178,-6.40876,0.0430471,0.00483516,0.182649,0.229791,0.00995402,2,0.502378,3.60632
2,1,Potentiostatic EIS,15.6131,3.60632,-0.00206695,3.16227,0.043967,-5.7462,0.043746,0.00440206,0.178286,0.226533,0.00995996,2,0.632458,3.60632
2,1,Potentiostatic EIS,17.0757,3.60632,-0.00200542,2.51188,0.0444637,-5.10595,0.0442873,0.00395717,0.17778,0.223867,0.00995396,2,0.796216,3.60632
2,1,Potentiostatic EIS,18.9146,3.60632,-0.00193099,1.99526,0.0448913,-4.55425,0.0447496,0.0035645,0.176987,0.221948,0.00996353,2,1.00238,3.60632
2,1,Potentiostatic EIS,21.2243,3.60632,-0.00233143,1.58489,0.0452508,-4.13631,0.0451329,0.00326392,0.13611,0.220178,0.00996321,2,1.26192,3.60632
2,1,Potentiostatic EIS,24.1282,3.60632,-0.00199087,1.25892,0.0455341,-3.7682,0.0454356,0.00299251,0.160229,0.218927,0.00996867,2,1.58866,3.60632
2,1,Potentiostatic EIS,27.7801,3.60632,-0.00189082,0.999998,0.0457715,-3.54152,0.0456841,0.00282739,0.179688,0.217676,0.00996338,2,2,3.60632
2,1,Potentiostatic EIS,32.3748,3.60633,-0.0022098,0.794327,0.0459765,-3.42162,0.0458945,0.00274401,0.160356,0.21658,0.00995758,2,2.51785,3.60633
2,1,Potentiostatic EIS,38.154,3.60632,-0.0017223,0.630956,0.0462068,-3.42029,0.0461245,0.00275669,0.189722,0.215704,0.00996701,2,3.16979,3.60632
2,1,Potentiostatic EIS,45.4283,3.60632,-0.00164978,0.501186,0.0464187,-3.48565,0.0463329,0.00282219,0.194009,0.214826,0.00997195,2,3.99054,3.60632
2,1,Potentiostatic EIS,52.718,3.60632,-0.00144413,0.5,0.0463955,-3.48436,0.0463098,0.00281974,0.176649,0.214693,0.00996077,2,4,3.60632