Folder: feature-extraction-paper-2024/Data/P180/P180_02/EIS_08_P180_02_3

Note: README.md
# feature-extraction-paper-2024
Repository for code used and referenced in 2024 feature extraction paper

File: 2_EIS_08_P180_02_3 20230828 112353.csv
Step number,Repeats,Step name,Elapsed Time  (s),DC Working Electrode (V),DC Current (A),Frequency (Hz),|Z| (Ohms),Phase (deg),Z' (Ohms),-Z" (Ohms),THD (%),Amplitude (A),Amplitude (V),No of Cycles,Duration of Each Frequency (s),IR Compensated DC Working Electrode (V)
2,1,Potentiostatic EIS,0,3.46581,-0.0097725,1000000,2.46707,87.8617,0.0920489,-2.46536,0.955121,0.0040449,0.00997905,1430,0.00143,3.46581
2,1,Potentiostatic EIS,0.247456,3.46574,-0.0117466,794328,1.97978,87.554,0.0844915,-1.97798,0.973325,0.00504975,0.00999742,1445,0.00181915,3.46574
2,1,Potentiostatic EIS,0.509873,3.4657,-0.0120803,630957.375,1.57509,87.0572,0.0808636,-1.57301,0.945845,0.00632524,0.00996284,1355,0.00214753,3.4657
2,1,Potentiostatic EIS,0.782371,3.46564,-0.0132153,501187.25,1.26036,87.1263,0.0631877,-1.25878,1.02192,0.00787467,0.00992497,1385,0.00276344,3.46564
2,1,Potentiostatic EIS,1.06651,3.46559,-0.0143866,398107,1.0085,86.318,0.0647655,-1.00642,1.08421,0.00988273,0.00996677,1400,0.00351664,3.46559
2,1,Potentiostatic EIS,1.38109,3.46553,-0.0153857,316228,0.801652,85.9862,0.0561124,-0.799686,1.08084,0.0121934,0.00977502,1370,0.00433232,3.46553
2,1,Potentiostatic EIS,1.74923,3.46547,-0.0165419,251189,0.644042,85.1997,0.0538951,-0.641783,1.27486,0.0154981,0.00998143,1340,0.00533464,3.46547
2,1,Potentiostatic EIS,2.15692,3.46538,-0.0182681,199526,0.514227,85.0208,0.0446318,-0.512287,1.32468,0.0193219,0.00993587,1355,0.00679109,3.46538
2,1,Potentiostatic EIS,2.63169,3.4653,-0.0199073,158489,0.413125,83.9921,0.0432396,-0.410856,1.47914,0.0240948,0.00995417,1360,0.00858102,3.4653
2,1,Potentiostatic EIS,3.16248,3.46521,-0.0215517,125893,0.332385,83.2103,0.0392963,-0.330054,1.65739,0.0297032,0.00987239,1370,0.0108823,3.46521
2,1,Potentiostatic EIS,3.84009,3.46509,-0.0238167,100000,0.265681,82.3098,0.0355526,-0.263292,1.70223,0.0374448,0.00994835,1370,0.0137,3.46509
2,1,Potentiostatic EIS,4.51163,3.46502,-0.024412,79432.8,0.214306,80.8548,0.0340611,-0.211582,2.36384,0.0456407,0.00978128,1365,0.0171843,3.46502
2,1,Potentiostatic EIS,4.88603,3.46491,-0.0256525,63095.7,0.172219,79.6213,0.0310257,-0.169401,1.94552,0.0579033,0.00997207,1290,0.0204451,3.46491
2,1,Potentiostatic EIS,5.27062,3.46552,-0.00993752,50118.75,0.139231,78.0042,0.0289379,-0.136191,4.13402,0.0714762,0.00995187,1025,0.0204514,3.46552
2,1,Potentiostatic EIS,5.49926,3.46552,-0.00996978,39810.7,0.112953,75.9784,0.0273672,-0.109588,4.87277,0.0887555,0.0100253,815,0.0204719,3.46552
2,1,Potentiostatic EIS,5.7364,3.46553,-0.0099453,31622.8,0.092214,73.4009,0.0263431,-0.0883711,5.69613,0.109238,0.0100735,645,0.0203967,3.46553
2,1,Potentiostatic EIS,5.96579,3.46583,-0.0020337,25118.9,0.0754638,70.5605,0.0251152,-0.0711619,6.28116,0.133975,0.0101103,510,0.0203034,3.46583
2,1,Potentiostatic EIS,6.1923,3.46586,-0.00132274,19952.6,0.0617862,67.254,0.0238895,-0.0569809,6.88592,0.16363,0.0101101,405,0.0202981,3.46586
2,1,Potentiostatic EIS,6.4161,3.46593,-3.05709e-05,15848.9,0.0508751,63.2927,0.0228649,-0.0454475,7.11416,0.197343,0.0100399,320,0.0201906,3.46593
2,1,Potentiostatic EIS,6.64405,3.46594,0.000810383,12589.2,0.0427075,58.5381,0.0222904,-0.0364289,7.23374,0.234578,0.0100182,255,0.0202554,3.46594
2,1,Potentiostatic EIS,6.95026,3.46616,0.000941198,9999.98,0.0365426,53.3537,0.0218113,-0.0293194,3.31749,0.273183,0.0099828,307,0.0307001,3.46616
2,1,Potentiostatic EIS,7.16067,3.46617,0.00108995,7943.27,0.0317956,48.0789,0.0212428,-0.023658,4.06721,0.28355,0.00901562,244,0.0307178,3.46617
2,1,Potentiostatic EIS,7.37296,3.46617,0.00107931,6309.57,0.0273665,42.3611,0.0202215,-0.0184396,4.51644,0.366895,0.0100406,193,0.0305885,3.46617
2,1,Potentiostatic EIS,7.58562,3.46619,0.00108467,5011.87,0.0248326,34.1915,0.0205407,-0.0139549,4.5131,0.421931,0.0104777,153,0.0305276,3.46619
2,1,Potentiostatic EIS,7.79696,3.46622,0.00214385,3981.07,0.0234062,27.5432,0.0207534,-0.0108234,4.32332,0.438995,0.0102752,122,0.0306451,3.46622
2,1,Potentiostatic EIS,8.0126,3.46625,0.00295728,3162.27,0.0224913,21.7782,0.0208861,-0.0083446,3.94986,0.451001,0.0101436,97,0.0306742,3.46625
2,1,Potentiostatic EIS,8.18065,3.46627,0.00311949,2511.88,0.0218955,16.7243,0.0209693,-0.00630079,3.59263,0.463771,0.0101545,77,0.0306543,3.46627
2,1,Potentiostatic EIS,8.34874,3.46628,0.00324325,1995.26,0.0215896,12.3689,0.0210884,-0.00462461,3.21073,0.478636,0.0103335,61,0.0305725,3.46628
2,1,Potentiostatic EIS,8.51618,3.4663,0.00386263,1584.89,0.0214835,8.70305,0.0212361,-0.00325074,2.84074,0.473116,0.0101642,48,0.030286,3.4663
2,1,Potentiostatic EIS,8.64315,3.46631,0.00376792,1258.92,0.0214936,5.67761,0.0213882,-0.00212638,2.59052,0.408587,0.00878201,38,0.0301845,3.46631
2,1,Potentiostatic EIS,8.76719,3.4663,0.00373866,999.999,0.0216107,3.1653,0.0215777,-0.00119327,2.30779,0.477994,0.0103298,30,0.03,3.4663
2,1,Potentiostatic EIS,8.89189,3.46631,0.00392846,794.328,0.0218077,0.958897,0.0218047,-0.000364955,2.15791,0.467321,0.0101912,24,0.0302142,3.46631
2,1,Potentiostatic EIS,9.01628,3.46632,0.00409546,630.956,0.0220568,-0.893403,0.0220541,0.000343914,2.09387,0.457837,0.0100984,19,0.030113,3.46632
2,1,Potentiostatic EIS,9.13964,3.46632,0.00457643,501.187,0.0223556,-2.53681,0.0223337,0.000989489,2.01677,0.450073,0.0100617,15,0.029929,3.46632
2,1,Potentiostatic EIS,9.21955,3.46633,0.00415753,398.107,0.0227116,-4.01214,0.0226559,0.00158908,2.00157,0.37582,0.00853546,12,0.0301427,3.46633
2,1,Potentiostatic EIS,9.29847,3.46633,0.00475173,316.228,0.0231404,-5.30467,0.0230413,0.00213937,1.83854,0.393983,0.00911692,9,0.0284605,3.46633
2,1,Potentiostatic EIS,9.3789,3.46634,0.00463999,251.189,0.0236513,-6.48192,0.0235001,0.00266999,1.68556,0.401532,0.00949674,8,0.0318486,3.46634
2,1,Potentiostatic EIS,9.46803,3.46633,0.00466442,199.526,0.0242574,-7.50563,0.0240496,0.00316859,1.53983,0.401391,0.00973671,8,0.0400951,3.46633
2,1,Potentiostatic EIS,9.56849,3.46634,0.00479396,158.489,0.0249064,-8.42534,0.0246376,0.00364931,1.3151,0.39595,0.00986171,8,0.0504766,3.46634
2,1,Potentiostatic EIS,9.68169,3.46634,0.00483841,125.892,0.0256239,-9.15534,0.0252975,0.00407706,1.14145,0.387202,0.00992162,8,0.0635464,3.46634
2,1,Potentiostatic EIS,9.81109,3.46632,0.0045643,100,0.0264507,-9.69896,0.0260727,0.0044562,0.944407,0.376325,0.00995406,8,0.08,3.46632
2,1,Potentiostatic EIS,9.964,3.46632,0.00461421,79.4327,0.0273078,-10.0214,0.0268912,0.00475201,0.806048,0.364616,0.00995687,8,0.100714,3.46632
2,1,Potentiostatic EIS,10.1433,3.46632,0.00426994,63.0956,0.0281965,-10.1461,0.0277556,0.00496709,0.660372,0.35295,0.00995197,8,0.126792,3.46632
2,1,Potentiostatic EIS,10.3574,3.46633,0.00504655,50.1186,0.0291021,-10.198,0.0286423,0.00515252,0.553115,0.336901,0.00980453,8,0.159621,3.46633
2,1,Potentiostatic EIS,10.6169,3.46632,0.00403249,39.8107,0.0299922,-10.0171,0.029535,0.00521689,0.442047,0.327368,0.00981849,8,0.200951,3.46632
2,1,Potentiostatic EIS,10.7596,3.46631,0.0024738,31.6228,0.0308659,-9.86602,0.0304094,0.00528871,0.350175,0.321221,0.00991488,2,0.0632456,3.46631
2,1,Potentiostatic EIS,10.9215,3.46631,0.00344737,25.1188,0.0317805,-9.46923,0.0313475,0.00522847,0.292529,0.304264,0.00966969,2,0.0796217,3.46631
2,1,Potentiostatic EIS,11.1208,3.46633,0.00357643,19.9526,0.0326273,-9.09203,0.0322174,0.0051558,0.278501,0.299208,0.00976231,2,0.100238,3.46633
2,1,Potentiostatic EIS,11.3678,3.46633,0.00370223,15.8489,0.0334587,-8.68175,0.0330753,0.00505045,0.266961,0.293706,0.00982702,2,0.126192,3.46633
2,1,Potentiostatic EIS,11.6743,3.46633,0.00328789,12.5892,0.0342719,-8.16341,0.0339246,0.0048665,0.235076,0.288065,0.00987252,2,0.158866,3.46633
2,1,Potentiostatic EIS,12.0556,3.46633,0.00277312,9.99998,0.0350369,-7.59051,0.0347299,0.00462811,0.224241,0.28259,0.00990109,2,0.2,3.46633
2,1,Potentiostatic EIS,12.5313,3.46632,0.00270602,7.94328,0.0357461,-6.96645,0.0354822,0.00433558,0.221014,0.277551,0.00992139,2,0.251785,3.46632
2,1,Potentiostatic EIS,13.1242,3.46632,0.00245228,6.30957,0.0363478,-6.30832,0.0361277,0.00399385,0.203059,0.273254,0.00993221,2,0.316979,3.46632
2,1,Potentiostatic EIS,13.8674,3.46633,0.0026945,5.01186,0.0368875,-5.65922,0.0367077,0.00363753,0.197237,0.269525,0.00994208,2,0.399053,3.46633
2,1,Potentiostatic EIS,14.795,3.46632,0.00237704,3.98106,0.0373044,-5.07393,0.0371583,0.00329925,0.204384,0.266608,0.00994567,2,0.502378,3.46632
2,1,Potentiostatic EIS,15.9596,3.46632,0.00175197,3.16227,0.0376749,-4.53377,0.037557,0.00297808,0.179806,0.26394,0.00994392,2,0.632458,3.46632
2,1,Potentiostatic EIS,17.4225,3.46632,0.00196449,2.51188,0.0379501,-4.10298,0.0378529,0.0027153,0.182058,0.262121,0.00994751,2,0.796216,3.46632
2,1,Potentiostatic EIS,19.2613,3.46632,0.00150385,1.99526,0.0381922,-3.78783,0.0381088,0.00252305,0.194706,0.260549,0.00995096,2,1.00238,3.46632
2,1,Potentiostatic EIS,21.5716,3.46633,0.000963498,1.58489,0.0384156,-3.52982,0.0383427,0.00236517,0.185165,0.259123,0.00995435,2,1.26192,3.46633
2,1,Potentiostatic EIS,24.4768,3.46633,0.00128596,1.25892,0.0386078,-3.40652,0.0385395,0.00229407,0.182181,0.257858,0.0099553,2,1.58866,3.46633
2,1,Potentiostatic EIS,28.1291,3.46634,0.00107243,0.999998,0.0387774,-3.3809,0.0387099,0.00228684,0.165953,0.256939,0.00996342,2,2,3.46634
2,1,Potentiostatic EIS,32.7236,3.46634,4.86003e-05,0.794327,0.0389237,-3.4422,0.0388535,0.00233704,0.167255,0.255439,0.00994261,2,2.51785,3.46634
2,1,Potentiostatic EIS,38.5031,3.46634,0.000930119,0.630956,0.0391093,-3.59872,0.0390322,0.00245482,0.163812,0.254541,0.00995493,2,3.16979,3.46634
2,1,Potentiostatic EIS,45.777,3.46635,0.000509492,0.501186,0.0392899,-3.876,0.0392001,0.0026559,0.117792,0.253316,0.00995277,2,3.99054,3.46635
2,1,Potentiostatic EIS,53.0667,3.46635,0.000396378,0.5,0.0392767,-3.8943,0.039186,0.00266752,0.114736,0.253338,0.00995029,2,4,3.46635