Folder: feature-extraction-paper-2024/Data/P180/P180_02/EIS_06_P180_02_2

Note: README.md
# feature-extraction-paper-2024
Repository for code used and referenced in 2024 feature extraction paper

File: 2_EIS_06_P180_02_2 20230824 135256.csv
Step number,Repeats,Step name,Elapsed Time  (s),DC Working Electrode (V),DC Current (A),Frequency (Hz),|Z| (Ohms),Phase (deg),Z' (Ohms),-Z" (Ohms),THD (%),Amplitude (A),Amplitude (V),No of Cycles,Duration of Each Frequency (s),IR Compensated DC Working Electrode (V)
2,1,Potentiostatic EIS,0,3.41722,-0.00696675,1000000,3.10402,88.4446,0.0842558,-3.10287,1.02365,0.00320013,0.00993341,1430,0.00143,3.41722
2,1,Potentiostatic EIS,0.228527,3.41716,-0.00823168,794328,2.48455,88.059,0.084151,-2.48313,1.13639,0.00398716,0.00990626,1445,0.00181915,3.41716
2,1,Potentiostatic EIS,0.468363,3.4171,-0.00902875,630957.375,1.97705,87.6194,0.0821213,-1.97535,0.95732,0.00492337,0.00973366,1355,0.00214753,3.4171
2,1,Potentiostatic EIS,0.740251,3.41708,-0.00945548,501187.25,1.57796,87.7162,0.06288,-1.5767,1.17306,0.00632866,0.00998631,1385,0.00276344,3.41708
2,1,Potentiostatic EIS,1.02571,3.41703,-0.010375,398107,1.2598,86.9196,0.0676989,-1.25798,1.03977,0.00791299,0.00996881,1400,0.00351664,3.41703
2,1,Potentiostatic EIS,1.32598,3.417,-0.0109112,316228,1.00339,86.5671,0.0600829,-1.00159,1.10817,0.00990095,0.0099345,1370,0.00433232,3.417
2,1,Potentiostatic EIS,1.80988,3.41694,-0.0116693,251189,0.80412,85.8305,0.0584652,-0.801991,1.16626,0.0123063,0.00989552,1340,0.00533464,3.41694
2,1,Potentiostatic EIS,2.2184,3.41686,-0.0126946,199526,0.639297,85.6082,0.0489548,-0.63742,1.2351,0.0155204,0.00992219,1355,0.00679109,3.41686
2,1,Potentiostatic EIS,2.67995,3.41684,-0.0137516,158489,0.514581,84.7838,0.0467831,-0.512449,1.20521,0.0193642,0.00996441,1360,0.00858102,3.41684
2,1,Potentiostatic EIS,3.43803,3.41675,-0.0147604,125893,0.412911,84.025,0.0429816,-0.410668,1.51688,0.0242043,0.00999421,1370,0.0108823,3.41675
2,1,Potentiostatic EIS,4.05909,3.41664,-0.016709,100000,0.329891,83.1461,0.0393686,-0.327534,1.38665,0.0301923,0.0099602,1370,0.0137,3.41664
2,1,Potentiostatic EIS,4.72463,3.41657,-0.0177925,79432.8,0.265223,81.9495,0.0371434,-0.262609,2.21957,0.0377002,0.00999894,1365,0.0171843,3.41657
2,1,Potentiostatic EIS,4.97724,3.41649,-0.0193572,63095.7,0.211978,80.7885,0.0339332,-0.209245,1.68378,0.0468753,0.00993657,1290,0.0204451,3.41649
2,1,Potentiostatic EIS,5.23765,3.41645,-0.0198928,50118.75,0.17088,79.0458,0.0324712,-0.167766,1.91675,0.0571403,0.00976516,1025,0.0204514,3.41645
2,1,Potentiostatic EIS,5.54079,3.41647,-0.01869,39810.7,0.138249,77.225,0.03057,-0.134827,1.85391,0.070043,0.00968285,815,0.0204719,3.41647
2,1,Potentiostatic EIS,5.9086,3.41696,-0.00753144,31622.8,0.113007,74.8472,0.0295393,-0.109078,5.10115,0.0886882,0.0100224,645,0.0203967,3.41696
2,1,Potentiostatic EIS,6.13739,3.41732,0.00039557,25118.9,0.0918404,72.0286,0.0283367,-0.0873596,6.05205,0.109546,0.0100607,510,0.0203034,3.41732
2,1,Potentiostatic EIS,6.36666,3.41735,0.000949676,19952.6,0.0748046,68.702,0.0271704,-0.0696957,6.69387,0.134268,0.0100439,405,0.0202981,3.41735
2,1,Potentiostatic EIS,6.59921,3.41737,0.000989646,15848.9,0.0613242,64.9559,0.0259595,-0.0555587,7.09436,0.163022,0.00999715,320,0.0201906,3.41737
2,1,Potentiostatic EIS,6.81202,3.41742,0.00194408,12589.2,0.0513795,60.312,0.025447,-0.0446352,7.16002,0.190267,0.00977601,255,0.0202554,3.41742
2,1,Potentiostatic EIS,7.11964,3.41744,0.00190163,9999.98,0.0436471,55.1793,0.0249229,-0.0358318,3.41754,0.22898,0.00999431,307,0.0307001,3.41744
2,1,Potentiostatic EIS,7.33269,3.41745,0.00174289,7943.27,0.0377592,49.8163,0.0243637,-0.0288472,4.13222,0.276922,0.0104563,244,0.0307178,3.41745
2,1,Potentiostatic EIS,7.54609,3.41747,0.00198109,6309.57,0.0324273,44.0623,0.0233018,-0.0225513,4.68159,0.325236,0.0105465,193,0.0305885,3.41747
2,1,Potentiostatic EIS,7.75902,3.4175,0.00264083,5011.87,0.0291862,36.1218,0.0235756,-0.0172053,4.77005,0.354791,0.010355,153,0.0305276,3.4175
2,1,Potentiostatic EIS,7.972,3.4175,0.00268871,3981.07,0.0273328,29.4643,0.0237976,-0.0134444,4.54865,0.373079,0.0101973,122,0.0306451,3.4175
2,1,Potentiostatic EIS,8.1442,3.41753,0.00325333,3162.27,0.0260749,23.5438,0.0239043,-0.0104156,4.25446,0.356398,0.00929304,97,0.0306742,3.41753
2,1,Potentiostatic EIS,8.31312,3.41754,0.00335425,2511.88,0.0252906,18.3177,0.0240091,-0.00794846,3.76503,0.414225,0.010476,77,0.0306543,3.41754
2,1,Potentiostatic EIS,8.48081,3.41753,0.00320478,1995.26,0.0248328,13.8356,0.0241123,-0.00593846,3.31785,0.413243,0.010262,61,0.0305725,3.41753
2,1,Potentiostatic EIS,8.64915,3.41754,0.0032931,1584.89,0.024616,10.0352,0.0242394,-0.0042894,2.93692,0.410302,0.0101,48,0.030286,3.41754
2,1,Potentiostatic EIS,8.77369,3.41755,0.00349409,1258.92,0.0245702,6.8538,0.0243946,-0.00293211,2.72246,0.388737,0.00955132,38,0.0301845,3.41755
2,1,Potentiostatic EIS,8.8986,3.41758,0.00363531,999.999,0.0246486,4.19059,0.0245827,-0.00180119,2.41434,0.417575,0.0102927,30,0.03,3.41758
2,1,Potentiostatic EIS,9.0219,3.41755,0.00340089,794.328,0.0248083,1.91424,0.0247944,-0.000828683,2.20398,0.409115,0.0101494,24,0.0302142,3.41755
2,1,Potentiostatic EIS,9.14615,3.41757,0.00368654,630.956,0.0250545,0.00656094,0.0250545,-2.86899e-06,2.16208,0.402317,0.0100799,19,0.030113,3.41757
2,1,Potentiostatic EIS,9.27298,3.41759,0.00378586,501.187,0.0253563,-1.73371,0.0253447,0.000767136,2.03125,0.396464,0.0100529,15,0.029929,3.41759
2,1,Potentiostatic EIS,9.35406,3.41759,0.00425821,398.107,0.0257133,-3.2926,0.0256709,0.00147685,1.97314,0.338459,0.00870289,12,0.0301427,3.41759
2,1,Potentiostatic EIS,9.43382,3.41759,0.00444622,316.228,0.0261315,-4.65395,0.0260453,0.00212024,1.80274,0.352645,0.00921515,9,0.0284605,3.41759
2,1,Potentiostatic EIS,9.51534,3.41759,0.00433172,251.189,0.0266736,-5.96002,0.0265294,0.00276964,1.64271,0.358235,0.0095554,8,0.0318486,3.41759
2,1,Potentiostatic EIS,9.60522,3.41758,0.00450467,199.526,0.0272942,-7.02585,0.0270892,0.00333854,1.47523,0.357526,0.00975838,8,0.0400951,3.41758
2,1,Potentiostatic EIS,9.70411,3.41758,0.00455049,158.489,0.0279947,-7.98329,0.0277234,0.00388803,1.24795,0.352709,0.00987398,8,0.0504766,3.41758
2,1,Potentiostatic EIS,9.8185,3.41757,0.00433056,125.892,0.028791,-8.81215,0.0284511,0.00441064,1.09342,0.345017,0.00993337,8,0.0635464,3.41757
2,1,Potentiostatic EIS,9.94872,3.41758,0.00408865,100,0.0296947,-9.46408,0.0292905,0.00488267,0.891744,0.335375,0.00995884,8,0.08,3.41758
2,1,Potentiostatic EIS,10.1003,3.41757,0.00410687,79.4327,0.0306695,-9.83666,0.0302186,0.00523958,0.735179,0.324906,0.00996471,8,0.100714,3.41757
2,1,Potentiostatic EIS,10.2791,3.41757,0.00394226,63.0956,0.0316882,-10.0148,0.0312054,0.00551064,0.60268,0.314403,0.00996286,8,0.126792,3.41757
2,1,Potentiostatic EIS,10.4939,3.41758,0.00469965,50.1186,0.0327055,-10.1023,0.0321985,0.00573675,0.509859,0.297956,0.0097448,8,0.159621,3.41758
2,1,Potentiostatic EIS,10.7518,3.41757,0.00356213,39.8107,0.0337219,-9.93238,0.0332165,0.00581655,0.398963,0.29004,0.0097807,8,0.200951,3.41757
2,1,Potentiostatic EIS,10.8958,3.41757,0.00174496,31.6228,0.0346723,-9.75305,0.0341712,0.00587357,0.333607,0.285559,0.00990115,2,0.0632456,3.41757
2,1,Potentiostatic EIS,11.0576,3.41757,0.00299135,25.1188,0.0357096,-9.33346,0.0352368,0.00579138,0.268651,0.270589,0.00966264,2,0.0796217,3.41757
2,1,Potentiostatic EIS,11.2571,3.41757,0.00296775,19.9526,0.0366778,-8.95715,0.0362305,0.00571058,0.23602,0.266232,0.00976475,2,0.100238,3.41757
2,1,Potentiostatic EIS,11.5042,3.41759,0.0032579,15.8489,0.037583,-8.50554,0.0371696,0.00555872,0.232051,0.261407,0.0098243,2,0.126192,3.41759
2,1,Potentiostatic EIS,11.8109,3.41759,0.00298345,12.5892,0.038417,-7.93839,0.0380489,0.0053057,0.461368,0.256968,0.00987197,2,0.158866,3.41759
2,1,Potentiostatic EIS,12.1923,3.41758,0.00253335,9.99998,0.0392321,-7.34156,0.0389105,0.00501324,1.12723,0.252293,0.00989798,2,0.2,3.41758
2,1,Potentiostatic EIS,12.6677,3.41758,0.00218151,7.94328,0.040006,-6.71175,0.0397318,0.00467568,0.212547,0.248097,0.00992533,2,0.251785,3.41758
2,1,Potentiostatic EIS,13.2616,3.41757,0.00182404,6.30957,0.0406535,-6.07019,0.0404255,0.00429897,0.206464,0.244328,0.00993276,2,0.316979,3.41757
2,1,Potentiostatic EIS,14.0022,3.41757,0.00199034,5.01186,0.0412039,-5.45607,0.0410172,0.00391777,0.191708,0.241453,0.00994878,2,0.399053,3.41757
2,1,Potentiostatic EIS,14.9299,3.41758,0.00199321,3.98106,0.0416701,-4.88985,0.0415185,0.00355198,0.193046,0.238925,0.00995604,2,0.502378,3.41758
2,1,Potentiostatic EIS,16.095,3.41758,0.00124555,3.16227,0.0420514,-4.41729,0.0419264,0.00323879,0.175963,0.236646,0.00995129,2,0.632458,3.41758
2,1,Potentiostatic EIS,17.557,3.41758,0.00119689,2.51188,0.0423802,-4.01514,0.0422762,0.00296747,0.165697,0.234935,0.0099566,2,0.796216,3.41758
2,1,Potentiostatic EIS,19.3954,3.41758,0.00111369,1.99526,0.0426422,-3.73533,0.0425516,0.00277803,0.193077,0.233538,0.00995858,2,1.00238,3.41758
2,1,Potentiostatic EIS,21.7062,3.41758,0.000255927,1.58489,0.0429022,-3.49991,0.0428221,0.00261904,0.168915,0.232212,0.00996239,2,1.26192,3.41758
2,1,Potentiostatic EIS,24.6112,3.41758,0.000151398,1.25892,0.0431038,-3.39869,0.043028,0.00255535,0.162962,0.231061,0.00995959,2,1.58866,3.41758
2,1,Potentiostatic EIS,28.2629,3.41758,0.000243459,0.999998,0.0433166,-3.36531,0.0432419,0.00254277,0.155131,0.22992,0.00995935,2,2,3.41758
2,1,Potentiostatic EIS,32.8574,3.41757,-0.000899187,0.794327,0.0435194,-3.44106,0.043441,0.00261211,0.162137,0.228718,0.00995369,2,2.51785,3.41757
2,1,Potentiostatic EIS,38.6364,3.41758,-0.000445659,0.630956,0.0437362,-3.61575,0.0436491,0.00275822,0.14507,0.22769,0.00995826,2,3.16979,3.41758
2,1,Potentiostatic EIS,45.911,3.41758,-0.000492136,0.501186,0.0439329,-3.90173,0.043831,0.00298943,0.10625,0.226658,0.00995772,2,3.99054,3.41758
2,1,Potentiostatic EIS,53.2006,3.41758,-0.000825249,0.5,0.043935,-3.90769,0.0438328,0.00299414,0.115246,0.226655,0.00995805,2,4,3.41758