Folder: feature-extraction-paper-2024/Data/P180/P180_02/EIS_04_P180_02_5

Note: README.md
# feature-extraction-paper-2024
Repository for code used and referenced in 2024 feature extraction paper

File: 2_EIS_04_P180_02_5 20230822 144840.csv
Step number,Repeats,Step name,Elapsed Time  (s),DC Working Electrode (V),DC Current (A),Frequency (Hz),|Z| (Ohms),Phase (deg),Z' (Ohms),-Z" (Ohms),THD (%),Amplitude (A),Amplitude (V),No of Cycles,Duration of Each Frequency (s),IR Compensated DC Working Electrode (V)
2,1,Potentiostatic EIS,0,3.40267,-0.006388,1000000,3.57187,88.3913,0.100272,-3.57046,1.06917,0.00279411,0.00998039,1430,0.00143,3.40267
2,1,Potentiostatic EIS,0.229291,3.40264,-0.00731524,794328,2.85483,87.8484,0.10718,-2.85282,1.26964,0.00346804,0.00990098,1445,0.00181915,3.40264
2,1,Potentiostatic EIS,0.471885,3.4026,-0.00769721,630957.375,2.27241,87.2802,0.107831,-2.26985,1.07242,0.0043683,0.00992654,1355,0.00214753,3.4026
2,1,Potentiostatic EIS,0.723726,3.40257,-0.00834062,501187.25,1.81558,87.4744,0.0800034,-1.81382,1.08625,0.00533078,0.00967825,1385,0.00276344,3.40257
2,1,Potentiostatic EIS,1.00851,3.40252,-0.00886915,398107,1.44938,86.6612,0.0844125,-1.44692,1.05335,0.00687635,0.00996649,1400,0.00351664,3.40252
2,1,Potentiostatic EIS,1.3105,3.4025,-0.00918796,316228,1.1553,86.2037,0.0764923,-1.15276,1.06911,0.00861001,0.00994716,1370,0.00433232,3.4025
2,1,Potentiostatic EIS,1.64294,3.40246,-0.00990662,251189,0.926034,85.4887,0.072838,-0.923165,1.16112,0.0107832,0.00998564,1340,0.00533464,3.40246
2,1,Potentiostatic EIS,2.02287,3.4024,-0.0107589,199526,0.736301,85.2507,0.0609623,-0.733773,1.32061,0.0132534,0.00975897,1355,0.00679109,3.4024
2,1,Potentiostatic EIS,2.4879,3.40236,-0.0111806,158489,0.592566,84.2459,0.0594103,-0.589581,1.28896,0.0168531,0.00998665,1360,0.00858102,3.40236
2,1,Potentiostatic EIS,3.02159,3.40229,-0.0124234,125893,0.475957,83.4937,0.0539318,-0.472891,1.24335,0.020958,0.00997515,1370,0.0108823,3.40229
2,1,Potentiostatic EIS,3.91736,3.40223,-0.012819,100000,0.380214,82.5479,0.0493124,-0.377003,1.65396,0.0262099,0.00996541,1370,0.0137,3.40223
2,1,Potentiostatic EIS,4.58968,3.40218,-0.013502,79432.8,0.306298,81.169,0.0470228,-0.302667,1.85682,0.0326589,0.0100034,1365,0.0171843,3.40218
2,1,Potentiostatic EIS,4.83489,3.40212,-0.0145429,63095.7,0.245843,79.7631,0.0436908,-0.24193,1.53954,0.0406166,0.00998533,1290,0.0204451,3.40212
2,1,Potentiostatic EIS,5.08359,3.40207,-0.0157621,50118.75,0.198438,78.2186,0.0405166,-0.194258,1.73924,0.0504727,0.0100158,1025,0.0204514,3.40207
2,1,Potentiostatic EIS,5.33811,3.40203,-0.0161584,39810.7,0.16058,75.7439,0.0395438,-0.155635,1.76705,0.0619305,0.00994485,815,0.0204719,3.40203
2,1,Potentiostatic EIS,5.67307,3.40198,-0.0149884,31622.8,0.131104,73.0204,0.0382863,-0.125389,1.85377,0.0764085,0.0100175,645,0.0203967,3.40198
2,1,Potentiostatic EIS,5.99545,3.40273,-0.00134663,25118.9,0.107467,70.2885,0.036247,-0.10117,4.84134,0.0919087,0.00987774,510,0.0203034,3.40273
2,1,Potentiostatic EIS,6.19805,3.40284,0.00174686,19952.6,0.0881157,66.6622,0.0349071,-0.0809065,6.07264,0.111844,0.00985541,405,0.0202981,3.40284
2,1,Potentiostatic EIS,6.40497,3.4029,0.00200269,15848.9,0.0728217,62.5632,0.0335541,-0.0646307,6.48944,0.136012,0.00990447,320,0.0201906,3.4029
2,1,Potentiostatic EIS,6.60746,3.40291,0.00233565,12589.2,0.0613989,57.6977,0.0328108,-0.0518968,6.76063,0.163864,0.0100608,255,0.0202554,3.40291
2,1,Potentiostatic EIS,6.91398,3.40292,0.00254598,9999.98,0.0526393,52.3157,0.032179,-0.0416583,3.30313,0.190072,0.0100052,307,0.0307001,3.40292
2,1,Potentiostatic EIS,7.12648,3.40291,0.00218365,7943.27,0.0460212,46.8657,0.0314652,-0.0335842,3.99659,0.227796,0.0104834,244,0.0307178,3.40291
2,1,Potentiostatic EIS,7.33771,3.40296,0.0028572,6309.57,0.0401443,41.0895,0.0302561,-0.0263843,4.53596,0.258188,0.0103648,193,0.0305885,3.40296
2,1,Potentiostatic EIS,7.55104,3.40297,0.00291275,5011.87,0.0366509,33.7081,0.030489,-0.0203398,4.60863,0.278303,0.0102,153,0.0305276,3.40297
2,1,Potentiostatic EIS,7.71827,3.40298,0.00332477,3981.07,0.0345709,27.4069,0.0306906,-0.0159132,4.42308,0.271548,0.00938764,122,0.0306451,3.40298
2,1,Potentiostatic EIS,7.88727,3.40297,0.00304717,3162.27,0.0331578,22.0715,0.0307279,-0.0124595,4.01883,0.317162,0.0105164,97,0.0306742,3.40297
2,1,Potentiostatic EIS,8.05576,3.40299,0.00328706,2511.88,0.0322232,17.3474,0.0307575,-0.00960783,3.6565,0.320256,0.0103197,77,0.0306543,3.40299
2,1,Potentiostatic EIS,8.2243,3.40299,0.0031799,1995.26,0.0316701,13.3131,0.030819,-0.00729277,3.21471,0.320173,0.0101399,61,0.0305725,3.40299
2,1,Potentiostatic EIS,8.3487,3.403,0.00347131,1584.89,0.0313937,9.88586,0.0309275,-0.00538985,2.99451,0.310685,0.00975356,48,0.030286,3.403
2,1,Potentiostatic EIS,8.47319,3.40302,0.0036669,1258.92,0.0312975,7.10037,0.0310575,-0.00386862,2.72175,0.330814,0.0103537,38,0.0301845,3.40302
2,1,Potentiostatic EIS,8.59748,3.40301,0.00358616,999.999,0.0313084,4.7262,0.031202,-0.00257963,2.51768,0.325578,0.0101933,30,0.03,3.40301
2,1,Potentiostatic EIS,8.72165,3.40302,0.00388988,794.328,0.0314187,2.72539,0.0313831,-0.00149393,2.26496,0.32112,0.0100892,24,0.0302142,3.40302
2,1,Potentiostatic EIS,8.84491,3.403,0.00343106,630.956,0.0316236,1.00416,0.0316188,-0.000554205,2.19212,0.317862,0.010052,19,0.030113,3.403
2,1,Potentiostatic EIS,8.96995,3.403,0.00390728,501.187,0.0318805,-0.43218,0.0318796,0.000240471,2.03858,0.314545,0.0100278,15,0.029929,3.403
2,1,Potentiostatic EIS,9.05109,3.40302,0.00382049,398.107,0.032216,-1.78975,0.0322003,0.00100617,1.92083,0.277007,0.00892407,12,0.0301427,3.40302
2,1,Potentiostatic EIS,9.12932,3.40302,0.00372798,316.228,0.0326038,-2.96911,0.03256,0.0016888,1.72964,0.286371,0.00933677,9,0.0284605,3.40302
2,1,Potentiostatic EIS,9.21034,3.40303,0.00385397,251.189,0.0330988,-4.02086,0.0330173,0.00232088,1.53698,0.290107,0.00960218,8,0.0318486,3.40303
2,1,Potentiostatic EIS,9.29945,3.40303,0.00410106,199.526,0.0336531,-4.88489,0.0335309,0.0028657,1.36058,0.289969,0.00975835,8,0.0400951,3.40303
2,1,Potentiostatic EIS,9.39902,3.40303,0.00416335,158.489,0.0342954,-5.71158,0.0341251,0.0034131,1.13117,0.28751,0.00986024,8,0.0504766,3.40303
2,1,Potentiostatic EIS,9.51103,3.40302,0.00400628,125.892,0.0350087,-6.40482,0.0347901,0.00390531,0.971254,0.283184,0.00991388,8,0.0635464,3.40302
2,1,Potentiostatic EIS,9.64055,3.40303,0.00402373,100,0.0358091,-6.97512,0.035544,0.00434859,0.771099,0.277455,0.00993541,8,0.08,3.40303
2,1,Potentiostatic EIS,9.79213,3.40302,0.00405126,79.4327,0.0366678,-7.31399,0.0363695,0.00466806,0.633108,0.271337,0.00994934,8,0.100714,3.40302
2,1,Potentiostatic EIS,9.97172,3.40302,0.00368238,63.0956,0.0375554,-7.56244,0.0372287,0.00494254,0.524448,0.264999,0.00995215,8,0.126792,3.40302
2,1,Potentiostatic EIS,10.1871,3.40303,0.00432048,50.1186,0.0384514,-7.77504,0.0380979,0.00520185,0.461733,0.254054,0.00976871,8,0.159621,3.40303
2,1,Potentiostatic EIS,10.4449,3.40302,0.0034234,39.8107,0.0393577,-7.75464,0.0389978,0.00531058,0.351726,0.249059,0.00980238,8,0.200951,3.40302
2,1,Potentiostatic EIS,10.5882,3.40302,0.00223535,31.6228,0.0402289,-7.80977,0.0398557,0.00546648,0.308953,0.246343,0.00991023,2,0.0632456,3.40302
2,1,Potentiostatic EIS,10.7503,3.40302,0.0032553,25.1188,0.0411767,-7.60651,0.0408143,0.00545052,0.256894,0.234666,0.00966273,2,0.0796217,3.40302
2,1,Potentiostatic EIS,10.9501,3.40302,0.00268224,19.9526,0.0420688,-7.47194,0.0417116,0.00547066,0.209165,0.232085,0.00976354,2,0.100238,3.40302
2,1,Potentiostatic EIS,11.1973,3.40301,0.00267715,15.8489,0.0429801,-7.25707,0.0426358,0.0054293,0.216901,0.228755,0.0098319,2,0.126192,3.40301
2,1,Potentiostatic EIS,11.5038,3.40302,0.00256691,12.5892,0.0439066,-7.02021,0.0435775,0.00536624,0.216792,0.225045,0.00988102,2,0.158866,3.40302
2,1,Potentiostatic EIS,11.885,3.40302,0.00242463,9.99998,0.0447857,-6.64677,0.0444847,0.00518386,0.195019,0.221307,0.00991138,2,0.2,3.40302
2,1,Potentiostatic EIS,12.3599,3.40302,0.00228451,7.94328,0.0456329,-6.22959,0.0453634,0.00495175,0.195618,0.217534,0.00992669,2,0.251785,3.40302
2,1,Potentiostatic EIS,12.9536,3.40302,0.00230019,6.30957,0.0464009,-5.73696,0.0461685,0.00463831,0.180061,0.21447,0.00995161,2,0.316979,3.40302
2,1,Potentiostatic EIS,13.6938,3.40302,0.00233953,5.01186,0.0470695,-5.21451,0.0468747,0.0042779,0.173339,0.211485,0.00995448,2,0.399053,3.40302
2,1,Potentiostatic EIS,14.6202,3.40302,0.00193862,3.98106,0.0476087,-4.71976,0.0474473,0.00391735,0.177776,0.209217,0.00996056,2,0.502378,3.40302
2,1,Potentiostatic EIS,15.785,3.40301,0.0015689,3.16227,0.048077,-4.23619,0.0479457,0.00355136,0.170319,0.207151,0.0099592,2,0.632458,3.40301
2,1,Potentiostatic EIS,17.2478,3.40301,0.00161703,2.51188,0.0484507,-3.83416,0.0483422,0.00323983,0.15966,0.205623,0.00996256,2,0.796216,3.40301
2,1,Potentiostatic EIS,19.0856,3.40301,0.00114392,1.99526,0.0487532,-3.53414,0.0486605,0.00300531,0.186635,0.204492,0.00996966,2,1.00238,3.40301
2,1,Potentiostatic EIS,21.3952,3.40301,0.000795047,1.58489,0.0490075,-3.28063,0.0489272,0.00280453,0.150128,0.203463,0.00997121,2,1.26192,3.40301
2,1,Potentiostatic EIS,24.2994,3.40302,0.00109029,1.25892,0.0492313,-3.15792,0.0491566,0.00271206,0.17226,0.202412,0.00996502,2,1.58866,3.40302
2,1,Potentiostatic EIS,27.9511,3.40302,0.000470367,0.999998,0.0494248,-3.09721,0.0493526,0.00267043,0.157189,0.20171,0.0099695,2,2,3.40302
2,1,Potentiostatic EIS,32.546,3.40302,0.000203274,0.794327,0.0496036,-3.13604,0.0495293,0.00271366,0.15476,0.200873,0.00996399,2,2.51785,3.40302
2,1,Potentiostatic EIS,38.3252,3.40302,0.000596733,0.630956,0.0497893,-3.23791,0.0497098,0.00281221,0.187578,0.200134,0.00996454,2,3.16979,3.40302
2,1,Potentiostatic EIS,45.5987,3.40302,-0.00024987,0.501186,0.0500043,-3.48581,0.0499118,0.00304032,0.150401,0.199339,0.00996782,2,3.99054,3.40302
2,1,Potentiostatic EIS,52.8885,3.40301,-0.00017905,0.5,0.049981,-3.47363,0.0498892,0.00302831,0.134991,0.199366,0.00996451,2,4,3.40301