Folder: feature-extraction-paper-2024/Data/P180/P180_02/EIS_04_P180_02_4

Note: README.md
# feature-extraction-paper-2024
Repository for code used and referenced in 2024 feature extraction paper

File: 2_EIS_04_P180_02_4 20230822 144507.csv
Step number,Repeats,Step name,Elapsed Time  (s),DC Working Electrode (V),DC Current (A),Frequency (Hz),|Z| (Ohms),Phase (deg),Z' (Ohms),-Z" (Ohms),THD (%),Amplitude (A),Amplitude (V),No of Cycles,Duration of Each Frequency (s),IR Compensated DC Working Electrode (V)
2,1,Potentiostatic EIS,0,3.40189,-0.00449651,1000000,2.41329,88.002,0.0841403,-2.41182,1.05254,0.00414953,0.010014,1430,0.00143,3.40189
2,1,Potentiostatic EIS,0.245661,3.40181,-0.006273,794328,1.93817,87.4887,0.0849245,-1.9363,1.02171,0.005128,0.0099389,1445,0.00181915,3.40181
2,1,Potentiostatic EIS,0.506902,3.40178,-0.00662138,630957.375,1.54381,86.9243,0.0828339,-1.54158,0.913485,0.00644289,0.00994665,1355,0.00214753,3.40178
2,1,Potentiostatic EIS,0.771511,3.40172,-0.0081124,501187.25,1.23383,87.0284,0.0639629,-1.23217,1.03351,0.00806038,0.00994512,1385,0.00276344,3.40172
2,1,Potentiostatic EIS,1.05421,3.40167,-0.00890875,398107,0.987746,86.1402,0.0664909,-0.985506,1.06967,0.0100876,0.00996402,1400,0.00351664,3.40167
2,1,Potentiostatic EIS,1.49664,3.40162,-0.00976571,316228,0.786268,85.8821,0.0564616,-0.784238,1.153,0.0123864,0.00973808,1370,0.00433232,3.40162
2,1,Potentiostatic EIS,1.86373,3.40154,-0.0108344,251189,0.632021,85.0407,0.0546375,-0.629655,1.13394,0.0157801,0.00997337,1340,0.00533464,3.40154
2,1,Potentiostatic EIS,2.27251,3.40149,-0.0120723,199526,0.503982,84.7101,0.0464649,-0.501835,1.25269,0.0197045,0.00993069,1355,0.00679109,3.40149
2,1,Potentiostatic EIS,2.936,3.40142,-0.0127382,158489,0.404683,83.7145,0.0443059,-0.40225,1.44346,0.0245805,0.00994731,1360,0.00858102,3.40142
2,1,Potentiostatic EIS,3.4668,3.40137,-0.0139584,125893,0.326109,82.8671,0.0404932,-0.323585,1.44012,0.0301089,0.00981877,1370,0.0108823,3.40137
2,1,Potentiostatic EIS,4.14789,3.40125,-0.0164358,100000,0.260986,81.9735,0.036442,-0.25843,1.5516,0.0381464,0.00995571,1370,0.0137,3.40125
2,1,Potentiostatic EIS,4.81898,3.40119,-0.0170545,79432.8,0.210344,80.4398,0.0349349,-0.207423,2.12446,0.0462375,0.0097252,1365,0.0171843,3.40119
2,1,Potentiostatic EIS,5.19976,3.40106,-0.0188731,63095.7,0.168991,79.1565,0.0317917,-0.165973,1.89199,0.0590042,0.00997118,1290,0.0204451,3.40106
2,1,Potentiostatic EIS,5.4736,3.40099,-0.020504,50118.75,0.136649,77.2869,0.0300723,-0.133299,2.01012,0.0729183,0.0099642,1025,0.0204514,3.40099
2,1,Potentiostatic EIS,5.84891,3.40159,-0.00647217,39810.7,0.110886,75.0292,0.0286448,-0.107122,5.191,0.0897414,0.00995109,815,0.0204719,3.40159
2,1,Potentiostatic EIS,6.07578,3.4016,-0.00630152,31622.8,0.0908612,72.1918,0.0277882,-0.0865077,5.86879,0.11108,0.0100929,645,0.0203967,3.4016
2,1,Potentiostatic EIS,6.29679,3.40193,0.00182859,25118.9,0.0741284,69.1396,0.0263966,-0.0692693,6.57017,0.136209,0.010097,510,0.0203034,3.40193
2,1,Potentiostatic EIS,6.52007,3.40195,0.00189866,19952.6,0.0608171,65.4757,0.0252439,-0.0553305,7.08408,0.165937,0.0100918,405,0.0202981,3.40195
2,1,Potentiostatic EIS,6.74045,3.402,0.00265532,15848.9,0.0504159,61.2766,0.024229,-0.0442122,7.2245,0.198901,0.0100277,320,0.0201906,3.402
2,1,Potentiostatic EIS,6.9628,3.40199,0.00311479,12589.2,0.0426827,56.0894,0.0238126,-0.0354228,7.13439,0.234279,0.00999974,255,0.0202554,3.40199
2,1,Potentiostatic EIS,7.31433,3.40205,0.00423465,9999.98,0.0368443,50.4969,0.0234374,-0.0284287,3.30622,0.271563,0.0100055,307,0.0307001,3.40205
2,1,Potentiostatic EIS,7.52641,3.40207,0.00416034,7943.27,0.0323866,44.967,0.022914,-0.0228876,4.01702,0.280974,0.00909979,244,0.0307178,3.40207
2,1,Potentiostatic EIS,7.73914,3.40208,0.00391748,6309.57,0.02817,38.8391,0.0219419,-0.0176664,4.41379,0.36364,0.0102438,193,0.0305885,3.40208
2,1,Potentiostatic EIS,7.95132,3.40208,0.00375571,5011.87,0.0259794,30.773,0.0223215,-0.013292,4.4017,0.402142,0.0104474,153,0.0305276,3.40208
2,1,Potentiostatic EIS,8.16306,3.40211,0.00469406,3981.07,0.0248241,24.3135,0.0226224,-0.0102208,4.16211,0.412914,0.0102502,122,0.0306451,3.40211
2,1,Potentiostatic EIS,8.33165,3.40214,0.00551491,3162.27,0.0240658,18.8437,0.022776,-0.00777296,4.00762,0.362866,0.00873266,97,0.0306742,3.40214
2,1,Potentiostatic EIS,8.50016,3.40214,0.00536027,2511.88,0.0236638,14.1802,0.0229428,-0.00579697,3.44506,0.444104,0.0105092,77,0.0306543,3.40214
2,1,Potentiostatic EIS,8.66924,3.40214,0.00487764,1995.26,0.0234853,10.2115,0.0231133,-0.00416353,3.12699,0.43855,0.0102995,61,0.0305725,3.40214
2,1,Potentiostatic EIS,8.83857,3.40217,0.00563213,1584.89,0.0234768,6.87784,0.0233079,-0.00281142,2.82079,0.431177,0.0101227,48,0.030286,3.40217
2,1,Potentiostatic EIS,8.96343,3.40216,0.00524868,1258.92,0.0236108,4.17367,0.0235482,-0.00171839,2.57692,0.398432,0.0094073,38,0.0301845,3.40216
2,1,Potentiostatic EIS,9.0873,3.40216,0.00533377,999.999,0.023815,1.94076,0.0238013,-0.000806521,2.36789,0.43242,0.0102981,30,0.03,3.40216
2,1,Potentiostatic EIS,9.21253,3.40217,0.0054792,794.328,0.0240684,0.104099,0.0240684,-4.37294e-05,2.26216,0.421798,0.010152,24,0.0302142,3.40217
2,1,Potentiostatic EIS,9.33636,3.40218,0.00577085,630.956,0.0243688,-1.46485,0.0243609,0.000622958,2.16348,0.414077,0.0100906,19,0.030113,3.40218
2,1,Potentiostatic EIS,9.46311,3.40218,0.00550182,501.187,0.0247005,-2.8639,0.0246697,0.00123413,2.07644,0.406268,0.010035,15,0.029929,3.40218
2,1,Potentiostatic EIS,9.54314,3.40218,0.00571318,398.107,0.0250983,-4.05704,0.0250354,0.00177569,2.04045,0.346432,0.00869485,12,0.0301427,3.40218
2,1,Potentiostatic EIS,9.62226,3.40219,0.00596966,316.228,0.0255166,-5.16225,0.0254131,0.00229589,1.87523,0.360846,0.00920757,9,0.0284605,3.40219
2,1,Potentiostatic EIS,9.70362,3.40218,0.00596887,251.189,0.0260382,-6.23284,0.0258843,0.00282694,1.72136,0.366486,0.00954264,8,0.0318486,3.40218
2,1,Potentiostatic EIS,9.79354,3.40218,0.00607752,199.526,0.0266247,-7.1155,0.0264196,0.003298,1.53663,0.366105,0.00974742,8,0.0400951,3.40218
2,1,Potentiostatic EIS,9.89226,3.40217,0.00607525,158.489,0.0272617,-7.92634,0.0270013,0.00375939,1.31167,0.361795,0.00986316,8,0.0504766,3.40217
2,1,Potentiostatic EIS,10.0067,3.40218,0.00615625,125.892,0.0279815,-8.61242,0.027666,0.00419023,1.13369,0.354757,0.00992663,8,0.0635464,3.40218
2,1,Potentiostatic EIS,10.1375,3.40217,0.00612964,100,0.0287734,-9.19621,0.0284036,0.00459845,0.925718,0.345634,0.00994506,8,0.08,3.40217
2,1,Potentiostatic EIS,10.2896,3.40217,0.00611904,79.4327,0.0296393,-9.55253,0.0292283,0.00491869,0.763607,0.335837,0.00995396,8,0.100714,3.40217
2,1,Potentiostatic EIS,10.4692,3.40218,0.00587918,63.0956,0.030548,-9.79547,0.0301026,0.00519718,0.626345,0.325693,0.00994926,8,0.126792,3.40218
2,1,Potentiostatic EIS,10.6832,3.40219,0.00647534,50.1186,0.0314865,-9.97109,0.0310109,0.00545193,0.556968,0.309581,0.00974763,8,0.159621,3.40219
2,1,Potentiostatic EIS,10.9429,3.40216,0.00507587,39.8107,0.0324429,-9.88838,0.031961,0.0055714,0.430283,0.301459,0.0097802,8,0.200951,3.40216
2,1,Potentiostatic EIS,11.0862,3.40216,0.00329731,31.6228,0.0333609,-9.84436,0.0328697,0.0057038,0.802999,0.296729,0.00989931,2,0.0632456,3.40216
2,1,Potentiostatic EIS,11.2479,3.40217,0.00465223,25.1188,0.0343771,-9.49814,0.0339058,0.00567275,0.731069,0.281017,0.00966038,2,0.0796217,3.40217
2,1,Potentiostatic EIS,11.4474,3.40218,0.00479533,19.9526,0.0353386,-9.15985,0.034888,0.00562554,0.739034,0.276223,0.00976128,2,0.100238,3.40218
2,1,Potentiostatic EIS,11.6945,3.40218,0.00487658,15.8489,0.03627,-8.76434,0.0358465,0.00552649,0.74198,0.271056,0.00983115,2,0.126192,3.40218
2,1,Potentiostatic EIS,12.001,3.40217,0.00448948,12.5892,0.0371781,-8.27267,0.0367912,0.00534934,0.523966,0.265547,0.00987254,2,0.158866,3.40217
2,1,Potentiostatic EIS,12.3824,3.40217,0.00418528,9.99998,0.0380005,-7.72902,0.0376553,0.00511062,0.230056,0.260588,0.00990242,2,0.2,3.40217
2,1,Potentiostatic EIS,12.8574,3.40218,0.00402664,7.94328,0.0387757,-7.13283,0.0384756,0.00481477,0.245639,0.255926,0.0099237,2,0.251785,3.40218
2,1,Potentiostatic EIS,13.4518,3.40218,0.00374935,6.30957,0.0394628,-6.52016,0.0392076,0.00448111,0.207391,0.251668,0.00993153,2,0.316979,3.40218
2,1,Potentiostatic EIS,14.1919,3.40218,0.00373643,5.01186,0.0400603,-5.89069,0.0398488,0.00411143,0.227293,0.248253,0.00994512,2,0.399053,3.40218
2,1,Potentiostatic EIS,15.1229,3.40218,0.0035558,3.98106,0.0405678,-5.31986,0.0403931,0.00376127,0.199226,0.245288,0.0099508,2,0.502378,3.40218
2,1,Potentiostatic EIS,16.2875,3.40218,0.00282346,3.16227,0.0409857,-4.81019,0.0408413,0.00343685,0.190371,0.242674,0.00994614,2,0.632458,3.40218
2,1,Potentiostatic EIS,17.7501,3.40218,0.00277687,2.51188,0.0413525,-4.3617,0.0412328,0.00314497,0.175442,0.240649,0.00995143,2,0.796216,3.40218
2,1,Potentiostatic EIS,19.5885,3.40219,0.00280301,1.99526,0.0416585,-4.01529,0.0415562,0.00291704,0.200899,0.239007,0.00995667,2,1.00238,3.40219
2,1,Potentiostatic EIS,21.8983,3.40219,0.00186692,1.58489,0.0419027,-3.8,0.0418106,0.00277706,0.171667,0.237689,0.00995982,2,1.26192,3.40219
2,1,Potentiostatic EIS,24.8028,3.40219,0.00177276,1.25892,0.0421541,-3.63204,0.0420694,0.0026704,0.151203,0.236357,0.0099634,2,1.58866,3.40219
2,1,Potentiostatic EIS,28.4555,3.40218,0.00168691,0.999998,0.04234,-3.59101,0.0422569,0.00265192,0.170306,0.235187,0.00995783,2,2,3.40218
2,1,Potentiostatic EIS,33.0496,3.40219,0.00059901,0.794327,0.0425426,-3.62209,0.0424576,0.00268764,0.147722,0.234186,0.00996287,2,2.51785,3.40219
2,1,Potentiostatic EIS,38.8288,3.40218,0.00085312,0.630956,0.0427533,-3.79578,0.0426595,0.00283029,0.176307,0.23294,0.00995895,2,3.16979,3.40218
2,1,Potentiostatic EIS,46.1028,3.40218,0.000897145,0.501186,0.0429496,-4.03315,0.0428433,0.00302081,0.15088,0.231807,0.00995602,2,3.99054,3.40218
2,1,Potentiostatic EIS,53.3924,3.40219,0.000476544,0.5,0.042937,-4.07014,0.0428287,0.00304757,0.148998,0.231857,0.00995526,2,4,3.40219