Folder: feature-extraction-paper-2024/Data/P180/P180_02/EIS_08_P180_02_1

Note: README.md
# feature-extraction-paper-2024
Repository for code used and referenced in 2024 feature extraction paper

File: 2_EIS_08_P180_02_1 20230828 111712.csv
Step number,Repeats,Step name,Elapsed Time  (s),DC Working Electrode (V),DC Current (A),Frequency (Hz),|Z| (Ohms),Phase (deg),Z' (Ohms),-Z" (Ohms),THD (%),Amplitude (A),Amplitude (V),No of Cycles,Duration of Each Frequency (s),IR Compensated DC Working Electrode (V)
2,1,Potentiostatic EIS,0,3.49023,-0.0130669,1000000,3.47709,88.3068,0.102737,-3.47557,1.11326,0.00286263,0.0099531,1430,0.00143,3.49023
2,1,Potentiostatic EIS,0.230088,3.4902,-0.0138867,794328,2.77262,87.9287,0.10021,-2.77081,1.23721,0.00357917,0.00992361,1445,0.00181915,3.4902
2,1,Potentiostatic EIS,0.469303,3.49014,-0.0142709,630957.375,2.20869,87.6277,0.0914216,-2.20679,1.12126,0.00448745,0.00991138,1355,0.00214753,3.49014
2,1,Potentiostatic EIS,0.719917,3.4901,-0.0150857,501187.25,1.7589,87.5396,0.0755085,-1.75728,1.12839,0.00550165,0.00967706,1385,0.00276344,3.4901
2,1,Potentiostatic EIS,1.0072,3.49006,-0.0155848,398107,1.40987,86.8124,0.0783954,-1.40768,1.1005,0.00706434,0.00995987,1400,0.00351664,3.49006
2,1,Potentiostatic EIS,1.3073,3.49004,-0.0160309,316228,1.12011,86.5126,0.0681342,-1.11803,1.19457,0.00887334,0.00993913,1370,0.00433232,3.49004
2,1,Potentiostatic EIS,1.79585,3.48996,-0.0170426,251189,0.899295,85.7381,0.0668321,-0.896808,1.19153,0.0111119,0.00999287,1340,0.00533464,3.48996
2,1,Potentiostatic EIS,2.16926,3.48991,-0.0179511,199526,0.716633,85.5872,0.0551388,-0.714508,1.29498,0.0135839,0.00973523,1355,0.00679109,3.48991
2,1,Potentiostatic EIS,2.63012,3.48984,-0.01877,158489,0.576955,84.6723,0.0535712,-0.574462,1.54743,0.0172734,0.00996602,1360,0.00858102,3.48984
2,1,Potentiostatic EIS,3.39225,3.48979,-0.0197118,125893,0.462978,83.8465,0.0496277,-0.46031,1.54558,0.0215852,0.0099935,1370,0.0108823,3.48979
2,1,Potentiostatic EIS,4.00837,3.4897,-0.0208417,100000,0.369306,83.2225,0.0435834,-0.366725,1.62635,0.0269514,0.00995326,1370,0.0137,3.4897
2,1,Potentiostatic EIS,4.68393,3.48963,-0.021965,79432.8,0.298146,81.9554,0.0417236,-0.295212,1.99268,0.0335078,0.00999022,1365,0.0171843,3.48963
2,1,Potentiostatic EIS,4.93252,3.48953,-0.0237809,63095.7,0.238984,80.9717,0.0375019,-0.236023,1.84836,0.0417987,0.00998922,1290,0.0204451,3.48953
2,1,Potentiostatic EIS,5.19153,3.4895,-0.0248594,50118.75,0.191478,78.8994,0.0368657,-0.187895,1.81121,0.0514925,0.00986091,1025,0.0204514,3.4895
2,1,Potentiostatic EIS,5.53744,3.48948,-0.0241866,39810.7,0.155856,77.6984,0.0332064,-0.152278,1.81627,0.0635375,0.00990291,815,0.0204719,3.48948
2,1,Potentiostatic EIS,5.88856,3.48991,-0.0136776,31622.8,0.126488,75.4149,0.031852,-0.122412,4.10895,0.0779768,0.00986343,645,0.0203967,3.48991
2,1,Potentiostatic EIS,6.11115,3.49028,-0.00288854,25118.9,0.103392,73.1306,0.0300035,-0.0989431,5.71639,0.0972376,0.0100536,510,0.0203034,3.49028
2,1,Potentiostatic EIS,6.31571,3.49038,-0.0011307,19952.6,0.0840477,70.0078,0.0287352,-0.0789829,6.19414,0.116484,0.00979023,405,0.0202981,3.49038
2,1,Potentiostatic EIS,6.52939,3.49045,-0.000870493,15848.9,0.0687352,66.6116,0.0272853,-0.0630875,6.76889,0.142811,0.00981621,320,0.0201906,3.49045
2,1,Potentiostatic EIS,6.73927,3.49041,-0.000761157,12589.2,0.0572817,62.2295,0.0266893,-0.050684,7.23038,0.173358,0.00993022,255,0.0202554,3.49041
2,1,Potentiostatic EIS,7.00257,3.49057,-0.00153571,9999.98,0.048271,57.5072,0.0259309,-0.0407146,3.46965,0.207233,0.0100034,307,0.0307001,3.49057
2,1,Potentiostatic EIS,7.21689,3.4906,-0.00108462,7943.27,0.0414144,52.4236,0.0252553,-0.0328226,4.23984,0.256239,0.010612,244,0.0307178,3.4906
2,1,Potentiostatic EIS,7.42814,3.49062,-0.000441979,6309.57,0.0352877,47.0005,0.024066,-0.025808,4.86174,0.297323,0.0104919,193,0.0305885,3.49062
2,1,Potentiostatic EIS,7.64097,3.49066,4.34517e-05,5011.87,0.0313556,39.2411,0.0242846,-0.0198351,4.99958,0.329483,0.0103311,153,0.0305276,3.49066
2,1,Potentiostatic EIS,7.85479,3.49067,0.000378453,3981.07,0.0289707,32.4234,0.0244545,-0.0155333,4.77985,0.351551,0.0101847,122,0.0306451,3.49067
2,1,Potentiostatic EIS,8.02387,3.49068,0.000819818,3162.27,0.0273217,26.3207,0.0244892,-0.0121143,4.48743,0.349409,0.00954646,97,0.0306742,3.49068
2,1,Potentiostatic EIS,8.19288,3.49068,0.000320433,2511.88,0.0262779,20.8177,0.0245624,-0.00933907,4.06058,0.397564,0.0104472,77,0.0306543,3.49068
2,1,Potentiostatic EIS,8.36131,3.49071,0.00128296,1995.26,0.025632,16.0265,0.0246357,-0.00707652,3.48177,0.400011,0.0102531,61,0.0305725,3.49071
2,1,Potentiostatic EIS,8.52993,3.49073,0.00158899,1584.89,0.0253064,11.9095,0.0247617,-0.00522238,3.15288,0.399912,0.0101203,48,0.030286,3.49073
2,1,Potentiostatic EIS,8.65319,3.49074,0.00143493,1258.92,0.0251749,8.48251,0.0248995,-0.00371348,2.85819,0.380583,0.00958113,38,0.0301845,3.49074
2,1,Potentiostatic EIS,8.77702,3.49074,0.00179144,999.999,0.0251666,5.58072,0.0250473,-0.0024474,2.51936,0.408658,0.0102845,30,0.03,3.49074
2,1,Potentiostatic EIS,8.90206,3.49075,0.00183572,794.328,0.0252887,3.18023,0.0252497,-0.00140294,2.31649,0.40142,0.0101514,24,0.0302142,3.49075
2,1,Potentiostatic EIS,9.0257,3.49075,0.00189545,630.956,0.025496,1.13515,0.0254909,-0.000505098,2.19572,0.395414,0.0100815,19,0.030113,3.49075
2,1,Potentiostatic EIS,9.15147,3.49075,0.0022349,501.187,0.02576,-0.661349,0.0257583,0.000297334,2.01818,0.390554,0.0100607,15,0.029929,3.49075
2,1,Potentiostatic EIS,9.2317,3.49075,0.00211827,398.107,0.0261023,-2.1885,0.0260833,0.000996775,1.96974,0.331633,0.0086564,12,0.0301427,3.49075
2,1,Potentiostatic EIS,9.31101,3.49076,0.00261031,316.228,0.0264686,-3.57991,0.0264169,0.00165271,1.80946,0.346054,0.00915957,9,0.0284605,3.49076
2,1,Potentiostatic EIS,9.39181,3.49076,0.0025007,251.189,0.0269881,-4.80793,0.0268931,0.00226203,1.63284,0.352424,0.00951126,8,0.0318486,3.49076
2,1,Potentiostatic EIS,9.48128,3.49077,0.00255482,199.526,0.0275576,-5.8407,0.0274145,0.00280435,1.47309,0.35281,0.00972261,8,0.0400951,3.49077
2,1,Potentiostatic EIS,9.58077,3.49076,0.00265185,158.489,0.0282055,-6.73456,0.0280109,0.00330765,1.26423,0.349129,0.00984735,8,0.0504766,3.49076
2,1,Potentiostatic EIS,9.6939,3.49075,0.00251216,125.892,0.0288981,-7.47813,0.0286523,0.00376102,1.09673,0.342849,0.00990766,8,0.0635464,3.49075
2,1,Potentiostatic EIS,9.82269,3.49075,0.00229325,100,0.0296836,-8.05493,0.0293907,0.00415933,0.912904,0.334691,0.00993483,8,0.08,3.49075
2,1,Potentiostatic EIS,9.97446,3.49075,0.00240514,79.4327,0.0305225,-8.3641,0.0301979,0.00443991,0.754699,0.325935,0.00994836,8,0.100714,3.49075
2,1,Potentiostatic EIS,10.1547,3.49075,0.00207733,63.0956,0.031392,-8.55789,0.0310425,0.0046714,0.624017,0.316919,0.00994872,8,0.126792,3.49075
2,1,Potentiostatic EIS,10.3695,3.49076,0.00287548,50.1186,0.0322596,-8.62414,0.0318948,0.00483738,0.510571,0.303388,0.00978718,8,0.159621,3.49076
2,1,Potentiostatic EIS,10.6312,3.49075,0.00192293,39.8107,0.0331356,-8.48288,0.0327731,0.00488796,0.394867,0.296073,0.00981055,8,0.200951,3.49075
2,1,Potentiostatic EIS,10.7744,3.49075,0.000530278,31.6228,0.0339575,-8.29197,0.0336025,0.00489727,0.335627,0.291821,0.00990962,2,0.0632456,3.49075
2,1,Potentiostatic EIS,10.9363,3.49074,0.00141452,25.1188,0.0348497,-7.91754,0.0345175,0.00480047,0.299772,0.277535,0.00967199,2,0.0796217,3.49074
2,1,Potentiostatic EIS,11.1355,3.49075,0.00154403,19.9526,0.0356276,-7.50531,0.0353223,0.0046536,0.227443,0.273947,0.00975994,2,0.100238,3.49075
2,1,Potentiostatic EIS,11.3825,3.49075,0.00157988,15.8489,0.0363932,-7.00937,0.0361213,0.00444113,0.221506,0.270166,0.00983225,2,0.126192,3.49075
2,1,Potentiostatic EIS,11.6889,3.49077,0.00168847,12.5892,0.0370784,-6.52639,0.0368381,0.00421436,0.215527,0.266367,0.00987647,2,0.158866,3.49077
2,1,Potentiostatic EIS,12.0702,3.49076,0.0013471,9.99998,0.0377006,-5.96022,0.0374968,0.00391475,0.176492,0.262575,0.00989922,2,0.2,3.49076
2,1,Potentiostatic EIS,12.5453,3.49076,0.00123216,7.94328,0.038242,-5.38884,0.038073,0.00359148,0.193913,0.259464,0.00992241,2,0.251785,3.49076
2,1,Potentiostatic EIS,13.1402,3.49076,0.00089254,6.30957,0.0386994,-4.87325,0.0385595,0.00328758,0.18416,0.256633,0.00993153,2,0.316979,3.49076
2,1,Potentiostatic EIS,13.8834,3.49077,0.00111117,5.01186,0.0391148,-4.35288,0.039002,0.00296877,0.191205,0.254286,0.00994632,2,0.399053,3.49077
2,1,Potentiostatic EIS,14.811,3.49076,0.00113123,3.98106,0.0394276,-3.93523,0.0393346,0.00270587,0.182805,0.252391,0.00995115,2,0.502378,3.49076
2,1,Potentiostatic EIS,15.9763,3.49075,0.000474611,3.16227,0.0397191,-3.55265,0.0396428,0.00246122,0.166648,0.250392,0.00994536,2,0.632458,3.49075
2,1,Potentiostatic EIS,17.4394,3.49075,0.000536468,2.51188,0.0399473,-3.2681,0.0398823,0.00227733,0.180668,0.249153,0.00995298,2,0.796216,3.49075
2,1,Potentiostatic EIS,19.2785,3.49074,0.000498824,1.99526,0.040151,-3.03452,0.0400947,0.0021255,0.171705,0.247834,0.00995077,2,1.00238,3.49074
2,1,Potentiostatic EIS,21.5887,3.49075,9.09073e-05,1.58489,0.0403465,-2.87517,0.0402957,0.00202379,0.172335,0.246868,0.00996023,2,1.26192,3.49075
2,1,Potentiostatic EIS,24.4938,3.49076,0.000178623,1.25892,0.0405176,-2.81648,0.0404686,0.00199092,0.169334,0.245987,0.00996682,2,1.58866,3.49076
2,1,Potentiostatic EIS,28.1459,3.49075,0.000189323,0.999998,0.0406572,-2.81509,0.0406081,0.00199678,0.184746,0.244951,0.00995902,2,2,3.49075
2,1,Potentiostatic EIS,32.7407,3.49075,-0.000478529,0.794327,0.0408192,-2.9251,0.040766,0.00208302,0.177274,0.24377,0.00995049,2,2.51785,3.49075
2,1,Potentiostatic EIS,38.5196,3.49076,0.000139803,0.630956,0.0409913,-3.08199,0.040932,0.00220389,0.161148,0.243047,0.00996279,2,3.16979,3.49076
2,1,Potentiostatic EIS,45.7934,3.49076,0.000330888,0.501186,0.0411556,-3.35076,0.0410852,0.00240548,0.14287,0.241916,0.0099562,2,3.99054,3.49076
2,1,Potentiostatic EIS,53.0829,3.49076,5.20535e-05,0.5,0.0411655,-3.34177,0.0410955,0.00239962,0.186301,0.24181,0.00995427,2,4,3.49076