Folder: feature-extraction-paper-2024/Data/P190/P190_04/EIS_08_P190_04_3

Note: README.md
# feature-extraction-paper-2024
Repository for code used and referenced in 2024 feature extraction paper

File: 2_EIS_08_P190_04_3 20231019 133221.csv
Step number,Repeats,Step name,Elapsed Time  (s),DC Working Electrode (V),DC Current (A),Frequency (Hz),|Z| (Ohms),Phase (deg),Z' (Ohms),-Z" (Ohms),THD (%),Amplitude (A),Amplitude (V),No of Cycles,Duration of Each Frequency (s),IR Compensated DC Working Electrode (V)
2,1,Potentiostatic EIS,60.3001,3.48763,-0.012464,1000000,3.3335,88.6476,0.0786744,-3.33257,1.13707,0.00298662,0.00995584,1430,0.00143,3.48763
2,1,Potentiostatic EIS,60.9882,3.48757,-0.0137516,707946,2.38645,88.0632,0.0806555,-2.38508,1.25899,0.00416003,0.00992769,1340,0.0018928,3.48757
2,1,Potentiostatic EIS,61.749,3.48752,-0.0152619,501187,1.70512,87.5727,0.0722139,-1.70359,1.12855,0.00585931,0.00999078,1385,0.00276344,3.48752
2,1,Potentiostatic EIS,62.6044,3.48747,-0.016781,354813,1.21442,86.5106,0.0739134,-1.21217,1.25441,0.00819837,0.00995632,1365,0.00384709,3.48747
2,1,Potentiostatic EIS,63.725,3.48739,-0.0184089,251189,0.870345,85.7199,0.0649552,-0.867918,1.23262,0.0114543,0.00996925,1340,0.00533464,3.48739
2,1,Potentiostatic EIS,64.8999,3.48732,-0.0203942,177828,0.623699,85.1611,0.0526117,-0.621476,1.47929,0.0159487,0.00994721,1355,0.00761973,3.48732
2,1,Potentiostatic EIS,66.6193,3.48719,-0.0231289,125892,0.450157,84.0207,0.0468927,-0.447707,1.51946,0.0221734,0.00998149,1370,0.0108823,3.48719
2,1,Potentiostatic EIS,68.3814,3.48709,-0.0263048,89125.1,0.323466,82.8782,0.0401029,-0.32097,1.711,0.0309528,0.0100123,1365,0.0153156,3.48709
2,1,Potentiostatic EIS,70.0247,3.487,-0.0290102,63095.7,0.233133,81.6045,0.0340389,-0.230635,1.9032,0.0427725,0.0099717,1290,0.0204451,3.487
2,1,Potentiostatic EIS,70.8735,3.48693,-0.0301507,44668.3,0.168567,79.307,0.0312772,-0.16564,1.908,0.0587894,0.00991013,910,0.0203724,3.48693
2,1,Potentiostatic EIS,71.6499,3.48738,-0.0138043,31622.8,0.122972,76.7504,0.0281845,-0.119699,4.97196,0.0792063,0.00974041,645,0.0203967,3.48738
2,1,Potentiostatic EIS,72.2966,3.48776,-0.0026953,22387.2,0.0891487,73.4234,0.0254338,-0.0854436,6.07731,0.11181,0.00996771,455,0.0203241,3.48776
2,1,Potentiostatic EIS,72.9119,3.48778,-0.00160147,15848.9,0.0658328,68.7232,0.023889,-0.0613456,7.00342,0.148347,0.00976629,320,0.0201906,3.48778
2,1,Potentiostatic EIS,73.5219,3.48779,-0.00126731,11220.2,0.049799,62.2764,0.0231668,-0.0440822,7.03389,0.197839,0.00985202,225,0.0200532,3.48779
2,1,Potentiostatic EIS,74.2059,3.48801,-0.0014746,7943.27,0.0387866,56.244,0.021552,-0.0322476,4.26366,0.2735,0.0106081,244,0.0307178,3.48801
2,1,Potentiostatic EIS,74.8424,3.48803,-0.000798748,5623.41,0.0301485,46.7031,0.0206752,-0.0219424,5.06982,0.346103,0.0104345,172,0.0305864,3.48803
2,1,Potentiostatic EIS,75.4766,3.48804,-0.000509613,3981.07,0.0258525,36.2097,0.0208594,-0.0152722,4.94856,0.396105,0.0102403,122,0.0306451,3.48804
2,1,Potentiostatic EIS,76.0244,3.4881,0.000981698,2818.38,0.0233438,26.7837,0.0208394,-0.0105193,4.48083,0.404011,0.00943117,86,0.030514,3.4881
2,1,Potentiostatic EIS,76.5267,3.48808,0.000448766,1995.26,0.0220439,18.5064,0.020904,-0.00699696,3.66727,0.469165,0.0103422,61,0.0305725,3.48808
2,1,Potentiostatic EIS,77.0268,3.48812,0.00143785,1412.53,0.0215206,11.6795,0.021075,-0.00435656,2.97287,0.469296,0.0100995,43,0.0304417,3.48812
2,1,Potentiostatic EIS,77.3973,3.48812,0.00126799,999.999,0.02148,6.45639,0.0213438,-0.00241536,2.45868,0.480891,0.0103296,30,0.03,3.48812
2,1,Potentiostatic EIS,77.7669,3.48814,0.00228734,707.945,0.0217549,2.44627,0.0217351,-0.000928555,2.14602,0.46657,0.0101502,21,0.0296633,3.48814
2,1,Potentiostatic EIS,78.1364,3.48813,0.00180631,501.185,0.0222164,-0.479322,0.0222156,0.000185854,1.94766,0.452844,0.0100605,15,0.029929,3.48813
2,1,Potentiostatic EIS,78.4624,3.48815,0.00233124,354.813,0.0228172,-2.54897,0.0227946,0.00101475,1.86195,0.38357,0.008752,10,0.0281839,3.48815
2,1,Potentiostatic EIS,78.7005,3.48814,0.00230144,251.188,0.023488,-3.95664,0.0234321,0.00162071,1.64561,0.399223,0.00937697,8,0.0318487,3.48814
2,1,Potentiostatic EIS,78.9681,3.48814,0.00246687,177.828,0.0242452,-4.81334,0.0241597,0.00203441,1.402,0.399873,0.009695,8,0.0449874,3.48814
2,1,Potentiostatic EIS,79.2858,3.48813,0.00204861,125.892,0.0249486,-5.2634,0.0248434,0.00228865,1.101,0.39352,0.00981778,8,0.0635464,3.48813
2,1,Potentiostatic EIS,79.6767,3.48814,0.00255941,89.1248,0.0256782,-5.33984,0.0255667,0.00238968,0.852898,0.38449,0.009873,8,0.0897617,3.48814
2,1,Potentiostatic EIS,80.1714,3.48814,0.00222829,63.0956,0.0263424,-5.21122,0.0262335,0.00239262,0.644333,0.375379,0.00988839,8,0.126792,3.48814
2,1,Potentiostatic EIS,80.8178,3.48815,0.00230944,44.6682,0.0269544,-4.95181,0.0268538,0.00232664,0.456584,0.36072,0.00972298,8,0.179098,3.48815
2,1,Potentiostatic EIS,81.503,3.48814,0.002193,31.6227,0.0275409,-4.47469,0.0274569,0.0021487,0.38563,0.358872,0.00988366,2,0.0632458,3.48814
2,1,Potentiostatic EIS,81.9918,3.48815,0.00183942,22.3871,0.0280082,-4.04848,0.0279383,0.00197739,0.305964,0.346224,0.00969732,2,0.0893371,3.48815
2,1,Potentiostatic EIS,82.661,3.48816,0.00211514,15.8489,0.0284154,-3.61463,0.0283589,0.00179146,0.274294,0.345262,0.00981066,2,0.126192,3.48816
2,1,Potentiostatic EIS,83.5854,3.48814,0.00111097,11.2201,0.0287676,-3.15272,0.028724,0.00158215,0.374079,0.342977,0.00986663,2,0.178251,3.48814
2,1,Potentiostatic EIS,84.8696,3.48814,0.00101712,7.94325,0.0290544,-2.76163,0.0290206,0.00139987,0.217368,0.341029,0.00990839,2,0.251786,3.48814
2,1,Potentiostatic EIS,86.6627,3.48815,0.000764912,5.62339,0.0292815,-2.45937,0.0292545,0.00125649,0.23665,0.338736,0.00991872,2,0.355657,3.48815
2,1,Potentiostatic EIS,89.1714,3.48816,0.000931477,3.98106,0.0294881,-2.23523,0.0294657,0.0011501,0.215984,0.336659,0.00992746,2,0.502378,3.48816
2,1,Potentiostatic EIS,92.6853,3.48816,0.000752517,2.81837,0.029685,-2.0906,0.0296653,0.0010829,0.207221,0.334606,0.00993279,2,0.70963,3.48816
2,1,Potentiostatic EIS,97.6267,3.48816,0.00042774,1.99526,0.0298466,-2.03914,0.0298277,0.00106201,0.203886,0.332927,0.00993677,2,1.00238,3.48816
2,1,Potentiostatic EIS,104.587,3.48815,0.000319474,1.41253,0.0300238,-2.01951,0.0300052,0.00105803,0.200298,0.331223,0.0099446,2,1.4159,3.48815
2,1,Potentiostatic EIS,114.4,3.48815,0.000265662,0.999995,0.030186,-2.11333,0.0301655,0.00111315,0.196831,0.329169,0.00993629,2,2.00001,3.48815
2,1,Potentiostatic EIS,128.244,3.48816,0.000115291,0.707944,0.0303782,-2.2796,0.0303541,0.00120832,0.233215,0.327417,0.00994633,2,2.82508,3.48816
2,1,Potentiostatic EIS,147.784,3.48816,0.000131841,0.501186,0.0305774,-2.51205,0.030548,0.00134019,0.217994,0.325368,0.00994888,2,3.99054,3.48816
2,1,Potentiostatic EIS,175.369,3.48815,-8.75927e-05,0.354812,0.0307977,-2.83238,0.0307601,0.00152184,0.204494,0.322936,0.0099457,2,5.63679,3.48815
2,1,Potentiostatic EIS,214.297,3.48816,8.89663e-05,0.251188,0.0310538,-3.22191,0.0310047,0.00174532,0.201234,0.320111,0.00994061,2,7.96218,3.48816
2,1,Potentiostatic EIS,269.271,3.48816,-0.000228784,0.177827,0.031331,-3.72754,0.0312647,0.00203689,0.201549,0.31722,0.00993882,2,11.2469,3.48816
2,1,Potentiostatic EIS,346.918,3.48816,-0.000406876,0.125892,0.0316612,-4.3739,0.031569,0.00241464,0.201783,0.314023,0.00994232,2,15.8867,3.48816
2,1,Potentiostatic EIS,456.572,3.48817,-0.000117043,0.0891246,0.0320557,-5.16169,0.0319257,0.00288394,0.191514,0.310118,0.00994105,2,22.4405,3.48817
2,1,Potentiostatic EIS,611.427,3.48817,-0.000134467,0.0630955,0.0325333,-6.19508,0.0323433,0.00351079,0.192304,0.305723,0.00994619,2,31.698,3.48817
2,1,Potentiostatic EIS,821.451,3.48817,-0.000260506,0.05,0.0329111,-6.98422,0.0326669,0.00400185,0.19212,0.302327,0.00994989,2,40,3.48817