Folder: feature-extraction-paper-2024/Data/P190/P190_04/EIS_06_P190_04_3

Note: README.md
# feature-extraction-paper-2024
Repository for code used and referenced in 2024 feature extraction paper

File: 2_EIS_06_P190_04_3 20231012 105432.csv
Step number,Repeats,Step name,Elapsed Time  (s),DC Working Electrode (V),DC Current (A),Frequency (Hz),|Z| (Ohms),Phase (deg),Z' (Ohms),-Z" (Ohms),THD (%),Amplitude (A),Amplitude (V),No of Cycles,Duration of Each Frequency (s),IR Compensated DC Working Electrode (V)
2,1,Potentiostatic EIS,60.2979,3.50198,-0.0145013,1000000,3.16591,88.0894,0.105551,-3.16415,1.12375,0.00314812,0.00996666,1430,0.00143,3.50198
2,1,Potentiostatic EIS,60.9816,3.50193,-0.0155906,707946,2.27868,87.932,0.0822269,-2.27719,1.24261,0.00433777,0.00988447,1340,0.0018928,3.50193
2,1,Potentiostatic EIS,61.75,3.50187,-0.0166841,501187,1.61955,87.3221,0.0756668,-1.61778,1.15509,0.00615972,0.00997595,1385,0.00276344,3.50187
2,1,Potentiostatic EIS,62.5856,3.50179,-0.0180239,354813,1.15934,86.1698,0.0774434,-1.15675,1.32607,0.00856041,0.00992439,1365,0.00384709,3.50179
2,1,Potentiostatic EIS,63.6851,3.50172,-0.0195083,251189,0.830933,85.2572,0.0687042,-0.828088,1.14998,0.0119946,0.00996673,1340,0.00533464,3.50172
2,1,Potentiostatic EIS,64.8791,3.50164,-0.0210653,177828,0.596436,84.4929,0.0572399,-0.593683,1.47313,0.0166573,0.00993507,1355,0.00761973,3.50164
2,1,Potentiostatic EIS,66.5989,3.5015,-0.0237076,125892,0.429171,83.2153,0.0507015,-0.426166,1.59076,0.023204,0.00995849,1370,0.0108823,3.5015
2,1,Potentiostatic EIS,68.3511,3.50143,-0.025878,89125.1,0.308592,81.9543,0.0431916,-0.305554,1.53493,0.0323908,0.00999555,1365,0.0153156,3.50143
2,1,Potentiostatic EIS,69.9892,3.50122,-0.0283483,63095.7,0.222725,80.1064,0.0382686,-0.219413,1.90668,0.0448354,0.00998601,1290,0.0204451,3.50122
2,1,Potentiostatic EIS,70.7757,3.50121,-0.0291449,44668.3,0.161438,77.1205,0.0359846,-0.157376,1.92715,0.060619,0.00978614,910,0.0203724,3.50121
2,1,Potentiostatic EIS,71.6479,3.50175,-0.015612,31622.8,0.118047,74.0626,0.0324141,-0.11351,4.99154,0.085024,0.0100369,645,0.0203967,3.50175
2,1,Potentiostatic EIS,72.3135,3.5021,-0.00623392,22387.2,0.0865242,69.7054,0.0300106,-0.081153,5.72399,0.115377,0.00998299,455,0.0203241,3.5021
2,1,Potentiostatic EIS,72.9606,3.5022,-0.00505642,15848.9,0.0648672,63.8743,0.0285638,-0.0582397,6.32821,0.149534,0.00970034,320,0.0201906,3.5022
2,1,Potentiostatic EIS,73.5709,3.50215,-0.00455188,11220.2,0.0502796,56.125,0.0280249,-0.0417449,6.77255,0.195054,0.00980761,225,0.0200532,3.50215
2,1,Potentiostatic EIS,74.2583,3.50236,-0.00480678,7943.27,0.040427,48.7666,0.0266466,-0.0304023,3.85329,0.261849,0.0105858,244,0.0307178,3.50236
2,1,Potentiostatic EIS,74.8944,3.50242,-0.00358369,5623.41,0.0329429,38.4965,0.0257826,-0.0205058,4.48606,0.314561,0.0103625,172,0.0305864,3.50242
2,1,Potentiostatic EIS,75.5298,3.50243,-0.00334987,3981.07,0.0297125,28.5457,0.0261005,-0.0141984,4.23951,0.341862,0.0101576,122,0.0306451,3.50243
2,1,Potentiostatic EIS,76.0312,3.50245,-0.00250416,2818.38,0.0278753,20.2083,0.0261594,-0.00962907,3.81771,0.37625,0.0104881,86,0.030514,3.50245
2,1,Potentiostatic EIS,76.5351,3.50248,-0.00213267,1995.26,0.0270512,13.3762,0.0263173,-0.00625812,3.04827,0.378251,0.0102321,61,0.0305725,3.50248
2,1,Potentiostatic EIS,76.9512,3.50248,-0.00211613,1412.53,0.0268091,8.0325,0.0265461,-0.00374616,2.70248,0.353387,0.00947398,43,0.0304417,3.50248
2,1,Potentiostatic EIS,77.3206,3.50249,-0.00180144,999.999,0.0269523,3.92677,0.0268891,-0.00184574,2.33575,0.380193,0.0102471,30,0.03,3.50249
2,1,Potentiostatic EIS,77.6889,3.50251,-0.00104163,707.945,0.0273562,0.806823,0.0273535,-0.00038521,2.12601,0.368766,0.010088,21,0.0296633,3.50251
2,1,Potentiostatic EIS,78.0587,3.5025,-0.00142271,501.185,0.0279299,-1.52103,0.02792,0.000741369,1.94999,0.359688,0.0100461,15,0.029929,3.5025
2,1,Potentiostatic EIS,78.3388,3.50251,-0.00147023,354.813,0.0286077,-3.14387,0.0285647,0.00156895,1.81033,0.315571,0.00902778,10,0.0281839,3.50251
2,1,Potentiostatic EIS,78.5757,3.50251,-0.00144875,251.188,0.0294325,-4.34271,0.029348,0.00222869,1.5493,0.324043,0.0095374,8,0.0318487,3.50251
2,1,Potentiostatic EIS,78.842,3.50251,-0.00105447,177.828,0.0303101,-5.06564,0.0301917,0.00267629,1.28044,0.322444,0.00977328,8,0.0449874,3.50251
2,1,Potentiostatic EIS,79.1588,3.50249,-0.00143257,125.892,0.0311961,-5.44509,0.0310553,0.00296025,0.987192,0.316424,0.00987119,8,0.0635464,3.50249
2,1,Potentiostatic EIS,79.5478,3.5025,-0.00135693,89.1248,0.0321068,-5.54111,0.0319568,0.00310023,0.739391,0.30856,0.00990689,8,0.0897617,3.5025
2,1,Potentiostatic EIS,80.0421,3.50251,-0.0011379,63.0956,0.0329925,-5.37504,0.0328474,0.00309056,0.54245,0.300676,0.00992005,8,0.126792,3.50251
2,1,Potentiostatic EIS,80.6837,3.5025,-0.00134453,44.6682,0.0337866,-5.02744,0.0336567,0.00296082,0.39183,0.287601,0.00971707,8,0.179098,3.5025
2,1,Potentiostatic EIS,81.3691,3.5025,-0.00196717,31.6227,0.0344852,-4.5751,0.0343754,0.00275074,0.311554,0.286602,0.00988359,2,0.0632458,3.5025
2,1,Potentiostatic EIS,81.8583,3.50251,-0.00132879,22.3871,0.035116,-4.03106,0.0350291,0.00246856,0.269362,0.275982,0.0096914,2,0.0893371,3.50251
2,1,Potentiostatic EIS,82.5284,3.50251,-0.00155755,15.8489,0.0356316,-3.49914,0.0355652,0.00217473,0.222139,0.275692,0.00982332,2,0.126192,3.50251
2,1,Potentiostatic EIS,83.4524,3.50251,-0.00177638,11.2201,0.0360355,-2.98608,0.0359866,0.00187721,0.354927,0.27421,0.00988135,2,0.178251,3.50251
2,1,Potentiostatic EIS,84.7354,3.50251,-0.00180941,7.94325,0.0363843,-2.55237,0.0363482,0.00162029,0.204748,0.27258,0.00991767,2,0.251786,3.50251
2,1,Potentiostatic EIS,86.5251,3.50251,-0.00197777,5.62339,0.0366193,-2.212,0.036592,0.0014134,0.182886,0.271228,0.00993221,2,0.355657,3.50251
2,1,Potentiostatic EIS,89.0255,3.50252,-0.00197848,3.98106,0.0368714,-1.93288,0.0368504,0.00124363,0.233171,0.269703,0.00994432,2,0.502378,3.50252
2,1,Potentiostatic EIS,92.5342,3.50251,-0.00213572,2.81837,0.0370432,-1.78319,0.0370253,0.00115269,0.177603,0.268543,0.00994767,2,0.70963,3.50251
2,1,Potentiostatic EIS,97.4739,3.5025,-0.00239908,1.99526,0.0372431,-1.68819,0.0372269,0.00109719,0.19258,0.267238,0.00995277,2,1.00238,3.5025
2,1,Potentiostatic EIS,104.433,3.50251,-0.00218489,1.41253,0.0373895,-1.66363,0.0373738,0.00108548,0.191683,0.266239,0.00995454,2,1.4159,3.50251
2,1,Potentiostatic EIS,114.244,3.50249,-0.00239019,0.999995,0.0375963,-1.69504,0.0375799,0.00111209,0.170572,0.264674,0.00995076,2,2.00001,3.50249
2,1,Potentiostatic EIS,128.089,3.5025,-0.0019667,0.707944,0.0378205,-1.80052,0.0378018,0.00118832,0.210451,0.263293,0.00995788,2,2.82508,3.5025
2,1,Potentiostatic EIS,147.627,3.5025,-0.00194509,0.501186,0.0379969,-1.99056,0.037974,0.00131982,0.204282,0.261957,0.00995355,2,3.99054,3.5025
2,1,Potentiostatic EIS,175.211,3.50249,-0.00164412,0.354812,0.0381338,-2.2355,0.0381048,0.00148748,0.168778,0.261001,0.00995295,2,5.63679,3.50249
2,1,Potentiostatic EIS,214.14,3.5025,-0.00137024,0.251188,0.0383798,-2.55898,0.0383415,0.00171357,0.184547,0.259368,0.00995449,2,7.96218,3.5025
2,1,Potentiostatic EIS,269.115,3.5025,-0.00107997,0.177827,0.0387568,-2.99106,0.038704,0.00202233,0.195191,0.25691,0.00995699,2,11.2469,3.5025
2,1,Potentiostatic EIS,346.764,3.5025,-0.000978554,0.125892,0.0392471,-3.5197,0.0391731,0.00240945,0.16826,0.253728,0.00995811,2,15.8867,3.5025
2,1,Potentiostatic EIS,456.415,3.50249,-0.000717201,0.0891246,0.0398384,-4.17273,0.0397328,0.00289878,0.192984,0.24994,0.00995722,2,22.4405,3.50249
2,1,Potentiostatic EIS,611.271,3.50251,-0.000366403,0.0630955,0.040473,-5.01243,0.0403182,0.0035362,0.163252,0.246155,0.00996266,2,31.698,3.50251
2,1,Potentiostatic EIS,821.295,3.5025,-0.000388608,0.05,0.0416075,-5.61339,0.0414079,0.00406986,0.238188,0.239347,0.00995863,2,40,3.5025