Folder: feature-extraction-paper-2024/Data/P190/P190_04/EIS_06_P190_04_5

Note: README.md
# feature-extraction-paper-2024
Repository for code used and referenced in 2024 feature extraction paper

File: 2_EIS_06_P190_04_5 20231012 115934.csv
Step number,Repeats,Step name,Elapsed Time  (s),DC Working Electrode (V),DC Current (A),Frequency (Hz),|Z| (Ohms),Phase (deg),Z' (Ohms),-Z" (Ohms),THD (%),Amplitude (A),Amplitude (V),No of Cycles,Duration of Each Frequency (s),IR Compensated DC Working Electrode (V)
2,1,Potentiostatic EIS,60.3005,3.49905,-0.0136292,1000000,3.27485,88.796,0.0688094,-3.27413,1.25046,0.00300184,0.00983001,1430,0.00143,3.49905
2,1,Potentiostatic EIS,60.9855,3.49899,-0.0148417,707946,2.3449,88.3133,0.069021,-2.34389,1.06661,0.00423743,0.00993626,1340,0.0018928,3.49899
2,1,Potentiostatic EIS,61.7375,3.49893,-0.0164021,501187,1.67087,87.9247,0.060508,-1.66977,1.16667,0.00595923,0.0099571,1385,0.00276344,3.49893
2,1,Potentiostatic EIS,62.5766,3.49888,-0.0175396,354813,1.18863,86.9057,0.0641627,-1.1869,1.22411,0.00835178,0.0099272,1365,0.00384709,3.49888
2,1,Potentiostatic EIS,63.68,3.4988,-0.0190216,251189,0.852901,85.9795,0.0597999,-0.850802,1.17129,0.0116958,0.00997542,1340,0.00533464,3.4988
2,1,Potentiostatic EIS,64.8456,3.49871,-0.0209487,177828,0.609703,85.293,0.0500326,-0.607646,1.26766,0.0163299,0.00995647,1355,0.00761973,3.49871
2,1,Potentiostatic EIS,66.5604,3.49859,-0.0235033,125892,0.437636,84.2885,0.0435532,-0.435463,1.55996,0.0227709,0.00996536,1370,0.0108823,3.49859
2,1,Potentiostatic EIS,68.3125,3.49845,-0.0263446,89125.1,0.314327,82.9194,0.0387457,-0.31193,1.6986,0.0318491,0.0100111,1365,0.0153156,3.49845
2,1,Potentiostatic EIS,69.954,3.49834,-0.0284182,63095.7,0.226044,81.2696,0.0343101,-0.223425,1.84992,0.0441696,0.00998436,1290,0.0204451,3.49834
2,1,Potentiostatic EIS,70.8014,3.49829,-0.0298834,44668.3,0.162577,78.6328,0.0320432,-0.159388,1.91715,0.0604235,0.00982338,910,0.0203724,3.49829
2,1,Potentiostatic EIS,71.6066,3.49879,-0.0153686,31622.8,0.11879,75.5632,0.0296159,-0.115039,5.04079,0.0845282,0.0100411,645,0.0203967,3.49879
2,1,Potentiostatic EIS,72.2693,3.49913,-0.00551564,22387.2,0.0860386,71.3595,0.0275004,-0.0815252,6.03605,0.115877,0.00996993,455,0.0203241,3.49913
2,1,Potentiostatic EIS,72.9175,3.49919,-0.00423009,15848.9,0.0640743,65.7549,0.0263115,-0.0584228,6.53728,0.151271,0.00969299,320,0.0201906,3.49919
2,1,Potentiostatic EIS,73.528,3.49926,-0.00383618,11220.2,0.049105,58.1991,0.0258768,-0.0417336,7.05429,0.199722,0.0098073,225,0.0200532,3.49926
2,1,Potentiostatic EIS,74.2096,3.49942,-0.00386638,7943.27,0.0390649,50.9496,0.0246111,-0.0303375,4.03236,0.271811,0.0106183,244,0.0307178,3.49942
2,1,Potentiostatic EIS,74.8467,3.49946,-0.00330885,5623.41,0.0314624,40.2298,0.0240203,-0.0203201,4.68868,0.330808,0.010408,172,0.0305864,3.49946
2,1,Potentiostatic EIS,75.48,3.49947,-0.00275692,3981.07,0.0281065,29.8875,0.0243685,-0.0140055,4.48063,0.361981,0.010174,122,0.0306451,3.49947
2,1,Potentiostatic EIS,75.9835,3.49952,-0.00149689,2818.38,0.0262927,21.1268,0.0245255,-0.00947675,3.8688,0.395925,0.0104099,86,0.030514,3.49952
2,1,Potentiostatic EIS,76.4845,3.49953,-0.00161921,1995.26,0.0254389,13.9297,0.0246908,-0.00612397,3.21224,0.402681,0.0102438,61,0.0305725,3.49953
2,1,Potentiostatic EIS,76.9419,3.49954,-0.00108739,1412.53,0.025218,8.241,0.0249576,-0.00361468,2.78156,0.364885,0.0092017,43,0.0304417,3.49954
2,1,Potentiostatic EIS,77.3114,3.49953,-0.00146559,999.999,0.0253992,3.93316,0.0253394,-0.0017422,2.36791,0.404241,0.0102674,30,0.03,3.49953
2,1,Potentiostatic EIS,77.6786,3.49958,7.00915e-05,707.945,0.0258166,0.752806,0.0258144,-0.000339193,2.09189,0.391752,0.0101137,21,0.0296633,3.49958
2,1,Potentiostatic EIS,78.0485,3.49957,0.000103526,501.185,0.0263892,-1.62978,0.0263785,0.000750543,1.95967,0.380115,0.0100309,15,0.029929,3.49957
2,1,Potentiostatic EIS,78.3293,3.49957,-0.00015731,354.813,0.0271134,-3.29381,0.0270686,0.00155783,1.83148,0.332126,0.00900505,10,0.0281839,3.49957
2,1,Potentiostatic EIS,78.5662,3.49956,-0.000291363,251.188,0.0278967,-4.45591,0.0278124,0.00216735,1.57459,0.341185,0.00951792,8,0.0318487,3.49956
2,1,Potentiostatic EIS,78.8343,3.49957,0.000121605,177.828,0.0287493,-5.10745,0.0286352,0.00255938,1.31726,0.339638,0.00976437,8,0.0449874,3.49957
2,1,Potentiostatic EIS,79.15,3.49957,-2.28448e-05,125.892,0.0296032,-5.46353,0.0294687,0.00281858,1.01054,0.333225,0.00986453,8,0.0635464,3.49957
2,1,Potentiostatic EIS,79.5372,3.49957,-0.000216359,89.1248,0.0304561,-5.50356,0.0303157,0.00292097,0.765657,0.325094,0.0099011,8,0.0897617,3.49957
2,1,Potentiostatic EIS,80.0299,3.49958,0.000127908,63.0956,0.0312721,-5.29699,0.0311386,0.00288699,0.576694,0.317035,0.00991437,8,0.126792,3.49958
2,1,Potentiostatic EIS,80.6744,3.49958,-8.91536e-05,44.6682,0.0320086,-4.93833,0.0318898,0.00275541,0.400832,0.303656,0.00971959,8,0.179098,3.49958
2,1,Potentiostatic EIS,81.3595,3.49959,-0.00062151,31.6227,0.032653,-4.48303,0.0325531,0.00255229,0.299016,0.302746,0.00988559,2,0.0632458,3.49959
2,1,Potentiostatic EIS,81.8475,3.49958,-0.000242675,22.3871,0.0332137,-3.95641,0.0331345,0.00229166,0.285842,0.292481,0.00971446,2,0.0893371,3.49958
2,1,Potentiostatic EIS,82.5172,3.49958,-0.000553855,15.8489,0.0336806,-3.42814,0.0336203,0.00201399,0.246023,0.291523,0.00981874,2,0.126192,3.49958
2,1,Potentiostatic EIS,83.4417,3.49958,-0.000756804,11.2201,0.0340466,-2.9475,0.0340015,0.0017507,0.218285,0.290338,0.00988496,2,0.178251,3.49958
2,1,Potentiostatic EIS,84.7251,3.49958,-0.000640029,7.94325,0.0343473,-2.52369,0.034314,0.00151239,0.212566,0.288719,0.00991675,2,0.251786,3.49958
2,1,Potentiostatic EIS,86.5152,3.49959,-0.000918318,5.62339,0.034582,-2.20628,0.0345564,0.00133132,0.222289,0.287322,0.00993615,2,0.355657,3.49959
2,1,Potentiostatic EIS,89.0184,3.49958,-0.00105821,3.98106,0.0347787,-1.96038,0.0347583,0.00118972,0.199582,0.285704,0.00993642,2,0.502378,3.49958
2,1,Potentiostatic EIS,92.5277,3.49959,-0.00110373,2.81837,0.0349547,-1.81849,0.0349371,0.00110923,0.197998,0.284443,0.00994262,2,0.70963,3.49959
2,1,Potentiostatic EIS,97.4684,3.49959,-0.00130011,1.99526,0.0351023,-1.73639,0.0350862,0.00106364,0.206806,0.283385,0.00994749,2,1.00238,3.49959
2,1,Potentiostatic EIS,104.427,3.49959,-0.00126854,1.41253,0.0352696,-1.72372,0.0352536,0.00106091,0.178561,0.282223,0.0099539,2,1.4159,3.49959
2,1,Potentiostatic EIS,114.24,3.49958,-0.00118489,0.999995,0.0354206,-1.76382,0.0354038,0.00109023,0.178714,0.280932,0.00995075,2,2.00001,3.49958
2,1,Potentiostatic EIS,128.084,3.49959,-0.00115453,0.707944,0.0355798,-1.88821,0.0355604,0.00117234,0.202644,0.27985,0.009957,2,2.82508,3.49959
2,1,Potentiostatic EIS,147.621,3.49959,-0.0011021,0.501186,0.0357479,-2.08488,0.0357242,0.00130051,0.1578,0.278306,0.00994885,2,3.99054,3.49959
2,1,Potentiostatic EIS,175.204,3.49959,-0.000885143,0.354812,0.0360161,-2.36963,0.0359853,0.00148912,0.170867,0.276221,0.00994842,2,5.63679,3.49959
2,1,Potentiostatic EIS,214.134,3.49959,-0.000865497,0.251188,0.0361883,-2.69423,0.0361483,0.00170107,0.179381,0.274835,0.00994581,2,7.96218,3.49959
2,1,Potentiostatic EIS,269.107,3.49958,-0.000476171,0.177827,0.0364303,-3.18,0.0363742,0.0020209,0.177854,0.273112,0.00994952,2,11.2469,3.49958
2,1,Potentiostatic EIS,346.756,3.49958,-0.000481466,0.125892,0.0367365,-3.73644,0.0366584,0.00239401,0.180218,0.270924,0.0099528,2,15.8867,3.49958
2,1,Potentiostatic EIS,456.409,3.49958,-0.000136549,0.0891246,0.0371588,-4.43821,0.0370473,0.00287549,0.177557,0.267953,0.00995676,2,22.4405,3.49958
2,1,Potentiostatic EIS,611.264,3.49957,9.25717e-05,0.0630955,0.0375074,-5.36225,0.0373433,0.00350516,0.197778,0.265349,0.00995256,2,31.698,3.49957
2,1,Potentiostatic EIS,821.288,3.49959,-0.000180578,0.05,0.0378647,-6.11259,0.0376494,0.00403193,0.17551,0.262941,0.00995618,2,40,3.49959