Folder: feature-extraction-paper-2024/Data/P190/P190_04/EIS_04_P190_04_1

Note: README.md
# feature-extraction-paper-2024
Repository for code used and referenced in 2024 feature extraction paper

File: 2_EIS_04_P190_04_1 20231005 135419.csv
Step number,Repeats,Step name,Elapsed Time  (s),DC Working Electrode (V),DC Current (A),Frequency (Hz),|Z| (Ohms),Phase (deg),Z' (Ohms),-Z" (Ohms),THD (%),Amplitude (A),Amplitude (V),No of Cycles,Duration of Each Frequency (s),IR Compensated DC Working Electrode (V)
2,1,Potentiostatic EIS,60.3037,3.51284,-0.013226,1000000,3.43623,88.6407,0.0815152,-3.43526,0.81103,0.00289178,0.0099368,1430,0.00143,3.51284
2,1,Potentiostatic EIS,60.9866,3.51279,-0.0142583,707946,2.45384,88.2289,0.0758389,-2.45267,0.8944,0.00404004,0.00991358,1340,0.0018928,3.51279
2,1,Potentiostatic EIS,61.7164,3.51272,-0.0157719,501187,1.74783,87.8119,0.0667317,-1.74656,0.993091,0.00553704,0.00967807,1385,0.00276344,3.51272
2,1,Potentiostatic EIS,62.5497,3.51265,-0.0174777,354813,1.2459,86.7644,0.0703217,-1.24391,0.982536,0.00798152,0.00994416,1365,0.00384709,3.51265
2,1,Potentiostatic EIS,63.6606,3.51257,-0.0191146,251189,0.892084,85.9165,0.0635248,-0.88982,0.986942,0.0111779,0.0099716,1340,0.00533464,3.51257
2,1,Potentiostatic EIS,64.8264,3.51248,-0.0217134,177828,0.639151,85.4368,0.0508504,-0.637125,1.2429,0.015602,0.00997207,1355,0.00761973,3.51248
2,1,Potentiostatic EIS,66.5408,3.51237,-0.0237694,125892,0.4593,84.3197,0.0454605,-0.457044,1.39986,0.0216925,0.00996341,1370,0.0108823,3.51237
2,1,Potentiostatic EIS,68.2983,3.51225,-0.0268037,89125.1,0.32916,83.2198,0.0388607,-0.326858,1.53827,0.0303556,0.00999191,1365,0.0153156,3.51225
2,1,Potentiostatic EIS,69.933,3.51213,-0.0297372,63095.7,0.236757,81.7079,0.0341449,-0.234282,1.70093,0.0421877,0.00998825,1290,0.0204451,3.51213
2,1,Potentiostatic EIS,70.7893,3.51202,-0.0320024,44668.3,0.170854,79.2069,0.0319946,-0.167832,1.83464,0.0580403,0.00991651,910,0.0203724,3.51202
2,1,Potentiostatic EIS,71.5743,3.5126,-0.0148392,31622.8,0.12431,76.4011,0.0292282,-0.120825,4.78119,0.0783053,0.00973386,645,0.0203967,3.5126
2,1,Potentiostatic EIS,72.2241,3.51294,-0.00447849,22387.2,0.0899849,72.6593,0.0268204,-0.085895,6.02131,0.110639,0.00995589,455,0.0203241,3.51294
2,1,Potentiostatic EIS,72.8428,3.51301,-0.0030256,15848.9,0.0665946,67.5108,0.0254731,-0.0615302,6.78128,0.146538,0.00975875,320,0.0201906,3.51301
2,1,Potentiostatic EIS,73.45,3.51303,-0.00261269,11220.2,0.0505887,60.4633,0.0249392,-0.0440142,7.08416,0.194893,0.00985941,225,0.0200532,3.51303
2,1,Potentiostatic EIS,74.1335,3.5132,-0.00299928,7943.27,0.0397467,53.2113,0.0238029,-0.0318311,4.22137,0.2667,0.0106004,244,0.0307178,3.5132
2,1,Potentiostatic EIS,74.7768,3.51326,-0.00154919,5623.41,0.031537,43.1942,0.0229917,-0.0215862,4.95528,0.330638,0.0104273,172,0.0305864,3.51326
2,1,Potentiostatic EIS,75.4096,3.51327,-0.000994189,3981.07,0.027695,32.494,0.0233593,-0.0148781,4.7096,0.367876,0.0101883,122,0.0306451,3.51327
2,1,Potentiostatic EIS,75.9589,3.51331,-0.000427721,2818.38,0.0255685,23.3342,0.0234773,-0.0101275,4.11362,0.398053,0.0101776,86,0.030514,3.51331
2,1,Potentiostatic EIS,76.4638,3.51332,6.50587e-06,1995.26,0.0245325,15.6412,0.023624,-0.00661426,3.43051,0.418791,0.010274,61,0.0305725,3.51332
2,1,Potentiostatic EIS,76.9238,3.51333,0.000494074,1412.53,0.0242168,9.49039,0.0238853,-0.00399291,2.90903,0.368819,0.00893162,43,0.0304417,3.51333
2,1,Potentiostatic EIS,77.2944,3.51334,0.000765838,999.999,0.0243283,4.87581,0.0242402,-0.00206781,2.36686,0.4217,0.0102592,30,0.03,3.51334
2,1,Potentiostatic EIS,77.6642,3.51337,0.0014679,707.945,0.0247121,1.38653,0.0247048,-0.000597962,2.15825,0.409212,0.0101125,21,0.0296633,3.51337
2,1,Potentiostatic EIS,78.0346,3.51337,0.00171789,501.185,0.0252725,-1.17013,0.0252672,0.000516094,1.97734,0.39729,0.0100405,15,0.029929,3.51337
2,1,Potentiostatic EIS,78.3153,3.51337,0.00137817,354.813,0.0259356,-2.90397,0.0259023,0.00131395,1.86439,0.344538,0.00893582,10,0.0281839,3.51337
2,1,Potentiostatic EIS,78.5526,3.51336,0.00125921,251.188,0.0267023,-4.07477,0.0266348,0.00189742,1.60527,0.355072,0.00948122,8,0.0318487,3.51336
2,1,Potentiostatic EIS,78.8215,3.51337,0.00158348,177.828,0.0274987,-4.7995,0.0274023,0.00230079,1.33497,0.354205,0.00974018,8,0.0449874,3.51337
2,1,Potentiostatic EIS,79.1404,3.51337,0.00123854,125.892,0.0283145,-5.05519,0.0282043,0.00249493,1.07194,0.348041,0.00985458,8,0.0635464,3.51337
2,1,Potentiostatic EIS,79.53,3.51337,0.00140826,89.1248,0.0290879,-5.01634,0.0289765,0.00254344,0.793467,0.339994,0.00988971,8,0.0897617,3.51337
2,1,Potentiostatic EIS,80.0258,3.51337,0.00169606,63.0956,0.0297975,-4.70165,0.0296972,0.00244242,0.60597,0.332262,0.00990056,8,0.126792,3.51337
2,1,Potentiostatic EIS,80.6715,3.51336,0.00133173,44.6682,0.0304177,-4.27679,0.030333,0.00226839,0.425328,0.322085,0.0097971,8,0.179098,3.51336
2,1,Potentiostatic EIS,81.3577,3.51336,0.000823368,31.6227,0.0309356,-3.7409,0.0308697,0.00201838,0.346379,0.320171,0.00990468,2,0.0632458,3.51336
2,1,Potentiostatic EIS,81.8455,3.51337,0.0013006,22.3871,0.0313558,-3.18986,0.0313072,0.00174479,0.286268,0.309607,0.00970801,2,0.0893371,3.51337
2,1,Potentiostatic EIS,82.5149,3.51336,0.000661095,15.8489,0.0316734,-2.70546,0.0316381,0.00149504,0.228732,0.310095,0.00982173,2,0.126192,3.51336
2,1,Potentiostatic EIS,83.4389,3.51335,0.00033837,11.2201,0.0319319,-2.26672,0.0319069,0.00126295,0.215188,0.309245,0.00987479,2,0.178251,3.51335
2,1,Potentiostatic EIS,84.7215,3.51335,0.000760506,7.94325,0.0320971,-1.953,0.0320785,0.00109386,0.199559,0.308854,0.0099133,2,0.251786,3.51335
2,1,Potentiostatic EIS,86.5114,3.51336,0.000471302,5.62339,0.0322647,-1.70476,0.0322504,0.000959852,0.220352,0.307842,0.00993244,2,0.355657,3.51336
2,1,Potentiostatic EIS,89.0152,3.51335,0.000245474,3.98106,0.0323952,-1.54868,0.0323834,0.000875521,0.18592,0.30684,0.00994013,2,0.502378,3.51335
2,1,Potentiostatic EIS,92.5251,3.51335,-7.56346e-05,2.81837,0.0325034,-1.46073,0.0324928,0.000828569,0.224508,0.306037,0.00994722,2,0.70963,3.51335
2,1,Potentiostatic EIS,97.4663,3.51336,-0.000224333,1.99526,0.0326289,-1.43951,0.0326186,0.000819687,0.231469,0.304797,0.00994518,2,1.00238,3.51336
2,1,Potentiostatic EIS,104.426,3.51336,-8.85974e-05,1.41253,0.0327366,-1.48202,0.0327256,0.000846674,0.191587,0.303623,0.00993958,2,1.4159,3.51336
2,1,Potentiostatic EIS,114.238,3.51337,7.21696e-05,0.999995,0.0328483,-1.58204,0.0328357,0.000906883,0.187683,0.302837,0.00994764,2,2.00001,3.51337
2,1,Potentiostatic EIS,128.083,3.51337,0.000232969,0.707944,0.032977,-1.73515,0.0329619,0.000998528,0.210051,0.301846,0.00995396,2,2.82508,3.51337
2,1,Potentiostatic EIS,147.622,3.51337,0.000328292,0.501186,0.0331127,-1.9689,0.0330932,0.00113766,0.186947,0.300547,0.0099519,2,3.99054,3.51337
2,1,Potentiostatic EIS,175.206,3.51337,0.000497202,0.354812,0.0332676,-2.2878,0.0332411,0.00132801,0.222335,0.299095,0.00995015,2,5.63679,3.51337
2,1,Potentiostatic EIS,214.136,3.51338,0.000620586,0.251188,0.0334522,-2.67062,0.0334159,0.00155868,0.217421,0.297451,0.00995039,2,7.96218,3.51338
2,1,Potentiostatic EIS,269.111,3.51336,0.000372121,0.177827,0.0336982,-3.19084,0.0336459,0.00187571,0.211323,0.295113,0.00994476,2,11.2469,3.51336
2,1,Potentiostatic EIS,346.759,3.51336,0.000427899,0.125892,0.0339795,-3.77083,0.0339059,0.00223469,0.199817,0.29292,0.00995327,2,15.8867,3.51336
2,1,Potentiostatic EIS,456.411,3.51336,-0.000124243,0.0891246,0.034338,-4.54905,0.0342298,0.00272343,0.198178,0.289768,0.00995004,2,22.4405,3.51336
2,1,Potentiostatic EIS,611.267,3.51337,-0.000159666,0.0630955,0.0347884,-5.51195,0.0346276,0.00334155,0.186214,0.28626,0.00995853,2,31.698,3.51337
2,1,Potentiostatic EIS,821.293,3.51336,-7.91697e-06,0.05,0.0351479,-6.30624,0.0349352,0.00386073,0.203056,0.283145,0.00995195,2,40,3.51336