Folder: feature-extraction-paper-2024/Data/P190/P190_04/EIS_08_P190_04_4

Note: README.md
# feature-extraction-paper-2024
Repository for code used and referenced in 2024 feature extraction paper

File: 2_EIS_08_P190_04_4 20231019 141243.csv
Step number,Repeats,Step name,Elapsed Time  (s),DC Working Electrode (V),DC Current (A),Frequency (Hz),|Z| (Ohms),Phase (deg),Z' (Ohms),-Z" (Ohms),THD (%),Amplitude (A),Amplitude (V),No of Cycles,Duration of Each Frequency (s),IR Compensated DC Working Electrode (V)
2,1,Potentiostatic EIS,60.3015,3.48749,-0.0113981,1000000,3.08246,88.157,0.0991357,-3.08086,0.993815,0.00322903,0.00995352,1430,0.00143,3.48749
2,1,Potentiostatic EIS,60.991,3.48742,-0.0128384,707946,2.21197,87.7119,0.0883104,-2.2102,0.992325,0.00447055,0.00988885,1340,0.0018928,3.48742
2,1,Potentiostatic EIS,61.7618,3.48736,-0.0142413,501187,1.57826,87.2025,0.0770301,-1.57638,1.0886,0.00630875,0.00995683,1385,0.00276344,3.48736
2,1,Potentiostatic EIS,62.6047,3.48728,-0.0161576,354813,1.1263,86.1364,0.075891,-1.12374,1.01357,0.00884441,0.00996157,1365,0.00384709,3.48728
2,1,Potentiostatic EIS,63.7052,3.4872,-0.0176594,251189,0.808545,85.0937,0.0691525,-0.805582,1.10235,0.0122671,0.00991859,1340,0.00533464,3.4872
2,1,Potentiostatic EIS,64.9089,3.48713,-0.0198848,177828,0.580763,84.4147,0.0565248,-0.578006,1.35672,0.0171504,0.00996033,1355,0.00761973,3.48713
2,1,Potentiostatic EIS,66.6119,3.487,-0.0226678,125892,0.419324,83.2898,0.0489967,-0.416452,1.43668,0.0237654,0.00996545,1370,0.0108823,3.487
2,1,Potentiostatic EIS,68.3747,3.48688,-0.0255114,89125.1,0.301504,81.9523,0.04221,-0.298535,1.6353,0.033179,0.0100036,1365,0.0153156,3.48688
2,1,Potentiostatic EIS,70.0144,3.48677,-0.028349,63095.7,0.217773,80.1033,0.037429,-0.214532,1.63262,0.0459031,0.00999653,1290,0.0204451,3.48677
2,1,Potentiostatic EIS,70.8684,3.48672,-0.0290344,44668.3,0.157974,77.4819,0.0342406,-0.154219,1.85377,0.0619198,0.00978175,910,0.0203724,3.48672
2,1,Potentiostatic EIS,71.6768,3.48722,-0.0134714,31622.8,0.115973,74.3727,0.0312409,-0.111686,5.00686,0.0866201,0.0100457,645,0.0203967,3.48722
2,1,Potentiostatic EIS,72.339,3.48755,-0.00312785,22387.2,0.0847518,70.4339,0.0283828,-0.0798578,5.94514,0.117684,0.00997389,455,0.0203241,3.48755
2,1,Potentiostatic EIS,72.9916,3.48762,-0.00171166,15848.9,0.063582,65.0859,0.0267845,-0.057665,6.72806,0.152761,0.00971228,320,0.0201906,3.48762
2,1,Potentiostatic EIS,73.6003,3.48763,-0.00124099,11220.2,0.0489512,58.0522,0.0259024,-0.0415366,6.728,0.200626,0.00982091,225,0.0200532,3.48763
2,1,Potentiostatic EIS,74.2849,3.48785,-0.0014441,7943.27,0.0389789,51.2587,0.0243932,-0.0304028,4.00061,0.272416,0.0106185,244,0.0307178,3.48785
2,1,Potentiostatic EIS,74.9193,3.48788,-0.000448896,5623.41,0.0312566,41.2333,0.023506,-0.0206021,4.7055,0.332928,0.0104062,172,0.0305864,3.48788
2,1,Potentiostatic EIS,75.5561,3.4879,-0.000268826,3981.07,0.0276685,31.3518,0.0236286,-0.0143957,4.52501,0.36843,0.0101939,122,0.0306451,3.4879
2,1,Potentiostatic EIS,76.1023,3.48793,0.000414442,2818.38,0.0255836,22.7394,0.023595,-0.00988907,3.96807,0.400498,0.0102462,86,0.030514,3.48793
2,1,Potentiostatic EIS,76.6041,3.48794,0.0010031,1995.26,0.0245383,15.4512,0.0236514,-0.00653743,3.32027,0.418448,0.010268,61,0.0305725,3.48794
2,1,Potentiostatic EIS,77.0611,3.48795,0.00118923,1412.53,0.0241479,9.6637,0.0238052,-0.00405358,2.94006,0.370178,0.00893903,43,0.0304417,3.48795
2,1,Potentiostatic EIS,77.4333,3.48796,0.00120836,999.999,0.0241727,5.18899,0.0240736,-0.00218621,2.37661,0.425228,0.0102789,30,0.03,3.48796
2,1,Potentiostatic EIS,77.8032,3.48799,0.00244207,707.945,0.0244666,1.83174,0.0244541,-0.000782061,2.14496,0.413291,0.0101118,21,0.0296633,3.48799
2,1,Potentiostatic EIS,78.1741,3.48799,0.00198185,501.185,0.0249471,-0.640209,0.0249455,0.000278747,1.94858,0.402667,0.0100454,15,0.029929,3.48799
2,1,Potentiostatic EIS,78.4549,3.48799,0.00189908,354.813,0.0255163,-2.39826,0.0254939,0.00106774,1.83935,0.348169,0.00888399,10,0.0281839,3.48799
2,1,Potentiostatic EIS,78.6943,3.48798,0.00216699,251.188,0.0262104,-3.60735,0.0261585,0.00164912,1.57259,0.360427,0.00944695,8,0.0318487,3.48798
2,1,Potentiostatic EIS,78.9607,3.48799,0.00234617,177.828,0.0269306,-4.30518,0.0268546,0.00202165,1.3181,0.360895,0.00971913,8,0.0449874,3.48799
2,1,Potentiostatic EIS,79.2785,3.48798,0.00195964,125.892,0.0276347,-4.64959,0.0275437,0.00224011,1.06754,0.355811,0.00983271,8,0.0635464,3.48798
2,1,Potentiostatic EIS,79.6666,3.48799,0.00246458,89.1248,0.0283073,-4.73866,0.0282106,0.0023385,0.777446,0.348821,0.00987421,8,0.0897617,3.48799
2,1,Potentiostatic EIS,80.162,3.48799,0.0022573,63.0956,0.0289775,-4.59281,0.0288845,0.00232034,0.586705,0.34158,0.00989815,8,0.126792,3.48799
2,1,Potentiostatic EIS,80.8102,3.488,0.00231312,44.6682,0.0295597,-4.3581,0.0294742,0.00224624,0.417579,0.328088,0.00969817,8,0.179098,3.488
2,1,Potentiostatic EIS,81.4961,3.48799,0.00145607,31.6227,0.0301054,-4.03116,0.0300309,0.00211638,0.311841,0.328204,0.00988077,2,0.0632458,3.48799
2,1,Potentiostatic EIS,81.9856,3.488,0.0021938,22.3871,0.0305931,-3.61751,0.0305322,0.00193029,0.263093,0.316534,0.00968388,2,0.0893371,3.488
2,1,Potentiostatic EIS,82.6555,3.48799,0.000685547,15.8489,0.0310023,-3.20762,0.0309537,0.00173471,1.96208,0.316398,0.00980903,2,0.126192,3.48799
2,1,Potentiostatic EIS,83.5799,3.48799,0.000993142,11.2201,0.0313328,-2.83449,0.0312945,0.00154944,0.235552,0.315461,0.00988428,2,0.178251,3.48799
2,1,Potentiostatic EIS,84.8637,3.48799,0.00199622,7.94325,0.0316037,-2.48272,0.031574,0.00136901,0.212136,0.313377,0.00990385,2,0.251786,3.48799
2,1,Potentiostatic EIS,86.6547,3.488,0.00111805,5.62339,0.0318466,-2.21632,0.0318228,0.00123159,0.227232,0.311842,0.00993112,2,0.355657,3.488
2,1,Potentiostatic EIS,89.1623,3.48799,0.000812048,3.98106,0.0320619,-2.03652,0.0320416,0.00113937,0.224837,0.309744,0.00993097,2,0.502378,3.48799
2,1,Potentiostatic EIS,92.6753,3.488,0.000661147,2.81837,0.0322237,-1.89595,0.0322061,0.00106611,0.184526,0.308297,0.00993446,2,0.70963,3.488
2,1,Potentiostatic EIS,97.6155,3.48799,0.000281155,1.99526,0.0323957,-1.85183,0.0323787,0.00104686,0.17723,0.306858,0.00994086,2,1.00238,3.48799
2,1,Potentiostatic EIS,104.576,3.488,0.000255076,1.41253,0.0325547,-1.86354,0.0325375,0.00105865,0.176304,0.305459,0.00994417,2,1.4159,3.488
2,1,Potentiostatic EIS,114.389,3.48798,0.000196037,0.999995,0.0327035,-1.96353,0.0326843,0.00112053,0.210914,0.304184,0.00994787,2,2.00001,3.48798
2,1,Potentiostatic EIS,128.234,3.48799,0.000134735,0.707944,0.0328702,-2.09597,0.0328482,0.00120218,0.20424,0.302513,0.00994367,2,2.82508,3.48799
2,1,Potentiostatic EIS,147.773,3.488,0.000112555,0.501186,0.033049,-2.32059,0.0330219,0.00133819,0.224124,0.300922,0.00994517,2,3.99054,3.488
2,1,Potentiostatic EIS,175.357,3.488,0.000436071,0.354812,0.0332862,-2.61079,0.0332516,0.00151622,0.205119,0.298882,0.00994859,2,5.63679,3.488
2,1,Potentiostatic EIS,214.288,3.488,0.000438868,0.251188,0.0333957,-3.01085,0.0333496,0.00175411,0.198065,0.298012,0.00995231,2,7.96218,3.488
2,1,Potentiostatic EIS,269.262,3.488,0.000426829,0.177827,0.0336465,-3.47158,0.0335848,0.00203741,0.183114,0.295772,0.00995167,2,11.2469,3.488
2,1,Potentiostatic EIS,346.911,3.48799,-1.6941e-06,0.125892,0.0339602,-4.07235,0.0338745,0.00241172,0.161013,0.292859,0.00994554,2,15.8867,3.48799
2,1,Potentiostatic EIS,456.564,3.48799,2.42064e-05,0.0891246,0.0343241,-4.80876,0.0342033,0.0028774,0.197855,0.289757,0.00994564,2,22.4405,3.48799
2,1,Potentiostatic EIS,611.42,3.48799,-1.7626e-05,0.0630955,0.0347915,-5.76323,0.0346156,0.00349368,0.184039,0.285965,0.00994916,2,31.698,3.48799
2,1,Potentiostatic EIS,821.445,3.488,-0.000145406,0.05,0.0351923,-6.55892,0.034962,0.00401984,0.190292,0.282901,0.00995589,2,40,3.488