Folder: feature-extraction-paper-2024/Data/P190/P190_04/EIS_02_P190_04_2

Note: README.md
# feature-extraction-paper-2024
Repository for code used and referenced in 2024 feature extraction paper

File: 2_EIS_02_P190_04_2 20230921 141316.csv
Step number,Repeats,Step name,Elapsed Time  (s),DC Working Electrode (V),DC Current (A),Frequency (Hz),|Z| (Ohms),Phase (deg),Z' (Ohms),-Z" (Ohms),THD (%),Amplitude (A),Amplitude (V),No of Cycles,Duration of Each Frequency (s),IR Compensated DC Working Electrode (V)
2,1,Potentiostatic EIS,60.2969,3.46271,-0.011541,1000000,2.60249,87.1051,0.131435,-2.59917,1.13766,0.00384062,0.00999507,1430,0.00143,3.46271
2,1,Potentiostatic EIS,60.7893,3.46261,-0.0136488,630957.375,1.67503,86.4175,0.104665,-1.67176,1.21621,0.00594364,0.0099557,1355,0.00214753,3.46261
2,1,Potentiostatic EIS,61.3357,3.46252,-0.0158284,398107,1.07463,85.4346,0.0855372,-1.07122,1.18698,0.00925853,0.00994949,1400,0.00351664,3.46252
2,1,Potentiostatic EIS,62.1403,3.46241,-0.0180769,251189,0.689835,84.1006,0.070903,-0.686182,1.36187,0.014455,0.0099716,1340,0.00533464,3.46241
2,1,Potentiostatic EIS,63.1987,3.46225,-0.0213669,158489,0.446076,82.7142,0.0565708,-0.442475,1.56971,0.0223079,0.00995109,1360,0.00858102,3.46225
2,1,Potentiostatic EIS,64.3455,3.46211,-0.0243847,100000,0.2892,80.9604,0.0454382,-0.285608,2.24249,0.0336146,0.00972182,1370,0.0137,3.46211
2,1,Potentiostatic EIS,65.2639,3.46193,-0.0278096,63095.7,0.189077,78.3639,0.0381359,-0.185192,1.99613,0.0514435,0.00972695,1290,0.0204451,3.46193
2,1,Potentiostatic EIS,66.0222,3.46245,-0.0135634,39810.7,0.124155,74.5599,0.0330538,-0.119674,4.56689,0.0802049,0.00995785,815,0.0204719,3.46245
2,1,Potentiostatic EIS,66.4609,3.46273,-0.00527572,25118.9,0.083223,69.0473,0.0297603,-0.0777199,5.98642,0.121117,0.0100797,510,0.0203034,3.46273
2,1,Potentiostatic EIS,66.9035,3.46289,-0.00338337,15848.9,0.0568553,61.1683,0.0274178,-0.0498075,6.92769,0.175698,0.00998958,320,0.0201906,3.46289
2,1,Potentiostatic EIS,67.3676,3.46308,-0.00294984,9999.98,0.0414417,51.2194,0.0259566,-0.0323059,3.21884,0.243544,0.0100929,307,0.0307001,3.46308
2,1,Potentiostatic EIS,67.7933,3.46311,-0.00243913,6309.57,0.031407,39.8289,0.0241194,-0.0201161,4.36447,0.335232,0.0105286,193,0.0305885,3.46311
2,1,Potentiostatic EIS,68.2164,3.46317,-0.00116787,3981.07,0.0273446,26.1394,0.0245479,-0.0120468,4.21261,0.372413,0.0101835,122,0.0306451,3.46317
2,1,Potentiostatic EIS,68.5513,3.46318,-0.000706125,2511.88,0.0256292,15.9046,0.0246481,-0.00702331,3.56506,0.407005,0.0104312,77,0.0306543,3.46318
2,1,Potentiostatic EIS,68.8433,3.46321,-1.03054e-05,1584.89,0.0251806,8.16409,0.0249254,-0.00357586,2.91962,0.338739,0.00852966,48,0.030286,3.46321
2,1,Potentiostatic EIS,69.0908,3.46322,-0.000105328,999.999,0.0254273,2.74345,0.0253982,-0.00121705,2.40108,0.40365,0.0102637,30,0.03,3.46322
2,1,Potentiostatic EIS,69.3383,3.46323,-9.99581e-05,630.956,0.0260519,-1.02458,0.0260478,0.000465844,2.12857,0.386411,0.0100667,19,0.030113,3.46323
2,1,Potentiostatic EIS,69.5412,3.46324,0.000424881,398.107,0.0269497,-3.49485,0.0268996,0.00164283,1.97856,0.326997,0.00881248,12,0.0301427,3.46324
2,1,Potentiostatic EIS,69.7019,3.46325,0.000623365,251.189,0.0280365,-5.17758,0.0279221,0.00253009,1.60529,0.341233,0.00956698,8,0.0318486,3.46325
2,1,Potentiostatic EIS,69.8904,3.46325,0.000780831,158.489,0.0292478,-6.03005,0.029086,0.00307248,1.215,0.336138,0.0098313,8,0.0504766,3.46325
2,1,Potentiostatic EIS,70.1312,3.46324,0.000359812,100,0.0305243,-6.38965,0.0303346,0.00339703,0.843142,0.324525,0.00990589,8,0.08,3.46324
2,1,Potentiostatic EIS,70.4615,3.46324,0.00049036,63.0956,0.0317786,-6.20964,0.0315921,0.00343738,0.603018,0.312135,0.0099192,8,0.126792,3.46324
2,1,Potentiostatic EIS,70.9346,3.46322,0.000259723,39.8107,0.0329235,-5.75958,0.0327572,0.00330402,0.395882,0.296592,0.00976482,8,0.200951,3.46322
2,1,Potentiostatic EIS,71.2398,3.46323,-5.40221e-05,25.1188,0.0339463,-5.12386,0.0338106,0.00303171,0.311357,0.284361,0.00965286,2,0.0796217,3.46323
2,1,Potentiostatic EIS,71.6872,3.46323,0.000119394,15.8489,0.0348063,-4.45325,0.0347012,0.00270255,0.249003,0.282141,0.00982031,2,0.126192,3.46323
2,1,Potentiostatic EIS,72.3753,3.46324,-0.000651041,9.99998,0.0355218,-3.8355,0.0354422,0.00237613,0.250097,0.278624,0.00989725,2,0.2,3.46324
2,1,Potentiostatic EIS,73.4455,3.46324,-0.000992229,6.30957,0.0360588,-3.2755,0.0359999,0.0020603,0.247413,0.275323,0.00992782,2,0.316979,3.46324
2,1,Potentiostatic EIS,75.119,3.46323,-0.000504787,3.98106,0.0365123,-2.86222,0.0364667,0.00182322,0.237791,0.272333,0.0099435,2,0.502378,3.46323
2,1,Potentiostatic EIS,77.7456,3.46324,-0.000685277,2.51188,0.0369131,-2.60378,0.036875,0.00167692,0.234733,0.269485,0.00994751,2,0.796216,3.46324
2,1,Potentiostatic EIS,81.8938,3.46324,-0.000975706,1.58489,0.0372824,-2.49317,0.0372471,0.0016218,0.197731,0.266932,0.00995186,2,1.26192,3.46324
2,1,Potentiostatic EIS,88.4497,3.46324,-0.000650379,0.999998,0.037627,-2.53714,0.0375901,0.00166563,0.223716,0.264442,0.00995018,2,2,3.46324
2,1,Potentiostatic EIS,98.8232,3.46325,-0.000633677,0.630956,0.0379935,-2.76519,0.0379493,0.00183292,0.171548,0.262004,0.00995445,2,3.16979,3.46325
2,1,Potentiostatic EIS,115.251,3.46325,-0.000930875,0.398106,0.0384373,-3.14519,0.0383794,0.00210892,0.205509,0.259013,0.00995576,2,5.02379,3.46325
2,1,Potentiostatic EIS,141.261,3.46324,-0.000557833,0.251188,0.0388592,-3.75064,0.038776,0.00254194,0.19937,0.256041,0.00994954,2,7.96216,3.46324
2,1,Potentiostatic EIS,182.475,3.46323,-3.57829e-05,0.158489,0.0394414,-4.53611,0.0393178,0.00311931,0.201616,0.252317,0.00995172,2,12.6192,3.46323
2,1,Potentiostatic EIS,247.78,3.46322,-0.000915151,0.0999997,0.0401674,-5.65141,0.0399722,0.00395552,0.188473,0.247793,0.00995319,2,20.0001,3.46322
2,1,Potentiostatic EIS,351.238,3.46322,-0.000807929,0.0630957,0.0410535,-7.19158,0.0407305,0.00513938,0.164013,0.242477,0.0099545,2,31.6979,3.46322
2,1,Potentiostatic EIS,496.573,3.46323,-0.000203106,0.05,0.0415208,-8.19415,0.0410969,0.00591787,0.182224,0.239743,0.00995429,2,40,3.46323