Folder: feature-extraction-paper-2024/Data/P190/P190_04/EIS_02_P190_04_4

Note: README.md
# feature-extraction-paper-2024
Repository for code used and referenced in 2024 feature extraction paper

File: 2_EIS_02_P190_04_4 20230921 151758.csv
Step number,Repeats,Step name,Elapsed Time  (s),DC Working Electrode (V),DC Current (A),Frequency (Hz),|Z| (Ohms),Phase (deg),Z' (Ohms),-Z" (Ohms),THD (%),Amplitude (A),Amplitude (V),No of Cycles,Duration of Each Frequency (s),IR Compensated DC Working Electrode (V)
2,1,Potentiostatic EIS,60.2992,3.46417,-0.0115481,1000000,2.73117,87.8111,0.104313,-2.72918,1.1239,0.00366551,0.0100107,1430,0.00143,3.46417
2,1,Potentiostatic EIS,61.0004,3.46408,-0.0134162,707946,1.95313,87.3626,0.0898723,-1.95106,1.12705,0.00511257,0.00998554,1340,0.0018928,3.46408
2,1,Potentiostatic EIS,61.7949,3.46402,-0.0142808,501187,1.39583,86.6979,0.0804001,-1.39351,1.08456,0.00713948,0.00996556,1385,0.00276344,3.46402
2,1,Potentiostatic EIS,62.6363,3.46395,-0.0158027,354813,0.997179,85.7257,0.0743207,-0.994405,1.18417,0.00998823,0.00996009,1365,0.00384709,3.46395
2,1,Potentiostatic EIS,63.7279,3.46386,-0.0175985,251189,0.715997,84.7448,0.0655795,-0.712988,1.53734,0.0135212,0.00968036,1340,0.00533464,3.46386
2,1,Potentiostatic EIS,64.9631,3.46376,-0.0198141,177828,0.515131,83.9524,0.0542715,-0.512264,1.4831,0.019334,0.00995951,1355,0.00761973,3.46376
2,1,Potentiostatic EIS,66.6483,3.46363,-0.0223802,125892,0.372292,82.8297,0.0464689,-0.36938,1.64109,0.0268188,0.00998447,1370,0.0108823,3.46363
2,1,Potentiostatic EIS,68.4009,3.46351,-0.024669,89125.1,0.268767,81.4425,0.0399929,-0.265775,1.72218,0.0372393,0.0100087,1365,0.0153156,3.46351
2,1,Potentiostatic EIS,70.0491,3.4634,-0.0272006,63095.7,0.193851,79.5099,0.0352936,-0.190611,1.85393,0.0504535,0.0097802,1290,0.0204451,3.4634
2,1,Potentiostatic EIS,71.0135,3.4639,-0.0120318,44668.3,0.140835,76.6311,0.0325638,-0.137018,3.93185,0.070686,0.00995505,910,0.0203724,3.4639
2,1,Potentiostatic EIS,71.6716,3.46389,-0.0124944,31622.8,0.103491,73.454,0.0294728,-0.099206,5.23381,0.0973043,0.0100699,645,0.0203967,3.46389
2,1,Potentiostatic EIS,72.3248,3.46425,-0.00277962,22387.2,0.0759254,69.0604,0.0271345,-0.0709111,6.06608,0.131479,0.00998247,455,0.0203241,3.46425
2,1,Potentiostatic EIS,72.987,3.4643,-0.00161068,15848.9,0.0570188,63.293,0.0256258,-0.0509358,6.77774,0.175169,0.00998785,320,0.0201906,3.4643
2,1,Potentiostatic EIS,73.6217,3.46435,-0.00127309,11220.2,0.0443359,55.6448,0.0250197,-0.0366017,7.03786,0.225743,0.0100086,225,0.0200532,3.46435
2,1,Potentiostatic EIS,74.3037,3.46455,-0.0011966,7943.27,0.0356199,48.3835,0.0236567,-0.0266297,3.95586,0.281106,0.010013,244,0.0307178,3.46455
2,1,Potentiostatic EIS,74.9356,3.46458,-0.000801895,5623.41,0.0289615,38.0336,0.0228115,-0.0178438,4.55225,0.360449,0.0104391,172,0.0305864,3.46458
2,1,Potentiostatic EIS,75.5662,3.4646,-0.000395106,3981.07,0.0262111,27.8952,0.0231655,-0.012263,4.29446,0.389783,0.0102167,122,0.0306451,3.4646
2,1,Potentiostatic EIS,76.1121,3.46464,0.000672541,2818.38,0.0246774,19.4738,0.0232657,-0.00822684,3.87612,0.407941,0.0100669,86,0.030514,3.46464
2,1,Potentiostatic EIS,76.6107,3.46465,0.00081039,1995.26,0.0239887,12.5438,0.0234161,-0.00521003,3.15049,0.427712,0.0102603,61,0.0305725,3.46465
2,1,Potentiostatic EIS,77.065,3.46467,0.000908047,1412.53,0.0238681,7.08272,0.0236859,-0.00294298,2.86352,0.377804,0.00901747,43,0.0304417,3.46467
2,1,Potentiostatic EIS,77.4338,3.46466,0.00102717,999.999,0.0240935,2.94676,0.0240616,-0.0012386,2.36814,0.427084,0.0102899,30,0.03,3.46466
2,1,Potentiostatic EIS,77.8032,3.46469,0.00207424,707.945,0.0245559,-0.205118,0.0245557,8.79098e-05,2.12514,0.411794,0.010112,21,0.0296633,3.46469
2,1,Potentiostatic EIS,78.1735,3.4647,0.00211964,501.185,0.0251817,-2.52266,0.0251573,0.00110836,2.00093,0.39942,0.0100581,15,0.029929,3.4647
2,1,Potentiostatic EIS,78.453,3.46469,0.00182636,354.813,0.0259043,-4.22323,0.025834,0.00190766,1.89396,0.348051,0.00901602,10,0.0281839,3.46469
2,1,Potentiostatic EIS,78.688,3.46469,0.00227516,251.188,0.0267616,-5.42493,0.0266418,0.00253008,1.61789,0.356685,0.00954549,8,0.0318487,3.46469
2,1,Potentiostatic EIS,78.953,3.4647,0.00221234,177.828,0.027675,-6.1437,0.027516,0.00296184,1.32048,0.353718,0.00978915,8,0.0449874,3.4647
2,1,Potentiostatic EIS,79.2693,3.46468,0.00200358,125.892,0.0286116,-6.54331,0.0284252,0.00326041,1.0707,0.345493,0.00988511,8,0.0635464,3.46468
2,1,Potentiostatic EIS,79.6566,3.46469,0.0020901,89.1248,0.0295527,-6.58857,0.0293575,0.00339084,0.798763,0.335363,0.00991086,8,0.0897617,3.46469
2,1,Potentiostatic EIS,80.1467,3.46468,0.00217556,63.0956,0.0304762,-6.36476,0.0302883,0.00337852,0.59273,0.325443,0.00991824,8,0.126792,3.46468
2,1,Potentiostatic EIS,80.7876,3.4647,0.00209433,44.6682,0.0313305,-6.03894,0.0311567,0.00329611,0.421391,0.309408,0.00969391,8,0.179098,3.4647
2,1,Potentiostatic EIS,81.4723,3.46469,0.000930523,31.6227,0.03209,-5.5747,0.0319382,0.00311733,0.305977,0.307854,0.00987907,2,0.0632458,3.46469
2,1,Potentiostatic EIS,81.9602,3.4647,0.00187745,22.3871,0.0328138,-5.04349,0.0326867,0.00288472,0.2638,0.29542,0.00969381,2,0.0893371,3.4647
2,1,Potentiostatic EIS,82.63,3.46469,0.00135928,15.8489,0.033413,-4.49632,0.0333101,0.00261941,0.22056,0.29376,0.00981542,2,0.126192,3.46469
2,1,Potentiostatic EIS,83.5542,3.46468,0.00099556,11.2201,0.0339305,-3.98625,0.0338484,0.00235875,0.216571,0.290981,0.00987311,2,0.178251,3.46468
2,1,Potentiostatic EIS,84.8371,3.4647,0.00107682,7.94325,0.0343728,-3.53581,0.0343074,0.00211985,0.214696,0.288453,0.00991498,2,0.251786,3.4647
2,1,Potentiostatic EIS,86.6262,3.46469,0.000459911,5.62339,0.034736,-3.16807,0.0346829,0.00191969,0.212068,0.285859,0.0099296,2,0.355657,3.46469
2,1,Potentiostatic EIS,89.1293,3.4647,0.000338178,3.98106,0.0350598,-2.85987,0.0350161,0.00174925,0.22703,0.283572,0.00994196,2,0.502378,3.4647
2,1,Potentiostatic EIS,92.6409,3.46469,0.000242556,2.81837,0.0353423,-2.65228,0.0353044,0.00163545,0.180613,0.281344,0.00994334,2,0.70963,3.46469
2,1,Potentiostatic EIS,97.5813,3.46469,2.2146e-06,1.99526,0.0356052,-2.54975,0.03557,0.00158396,0.231788,0.279488,0.00995125,2,1.00238,3.46469
2,1,Potentiostatic EIS,104.541,3.4647,-0.000153585,1.41253,0.0358672,-2.50752,0.0358328,0.00156921,0.2006,0.277432,0.00995069,2,1.4159,3.4647
2,1,Potentiostatic EIS,114.352,3.4647,6.90416e-05,0.999995,0.0361369,-2.55457,0.036101,0.00161065,0.201202,0.27557,0.00995826,2,2.00001,3.4647
2,1,Potentiostatic EIS,128.197,3.4647,-0.00015171,0.707944,0.0363529,-2.73503,0.0363115,0.00173465,0.209999,0.273974,0.00995976,2,2.82508,3.4647
2,1,Potentiostatic EIS,147.735,3.4647,-0.000136252,0.501186,0.0366076,-2.99583,0.0365575,0.00191323,0.18742,0.272094,0.0099607,2,3.99054,3.4647
2,1,Potentiostatic EIS,175.319,3.4647,-0.00011368,0.354812,0.0369258,-3.31673,0.0368639,0.00213636,0.205982,0.26961,0.00995559,2,5.63679,3.4647
2,1,Potentiostatic EIS,214.248,3.4647,-0.000140327,0.251188,0.0372041,-3.81287,0.0371218,0.002474,0.19473,0.267586,0.00995527,2,7.96218,3.4647
2,1,Potentiostatic EIS,269.22,3.46469,1.04403e-05,0.177827,0.0375485,-4.39081,0.0374383,0.00287468,0.190213,0.265055,0.00995241,2,11.2469,3.46469
2,1,Potentiostatic EIS,346.868,3.4647,-2.07896e-05,0.125892,0.0380038,-5.17692,0.0378488,0.00342914,0.150066,0.262023,0.00995786,2,15.8867,3.4647
2,1,Potentiostatic EIS,456.52,3.46469,0.00015363,0.0891246,0.0384832,-6.17189,0.0382602,0.00413739,0.205126,0.258708,0.0099559,2,22.4405,3.46469
2,1,Potentiostatic EIS,611.375,3.4647,0.000212261,0.0630955,0.0392359,-7.35442,0.0389131,0.00502246,0.205067,0.253827,0.00995916,2,31.698,3.4647
2,1,Potentiostatic EIS,821.398,3.46467,-0.000352037,0.05,0.0396092,-8.39727,0.0391846,0.00578437,0.190939,0.251324,0.00995474,2,40,3.46467