Folder: feature-extraction-paper-2024/Data/P190/P190_04/EIS_02_P190_04_5

Note: README.md
# feature-extraction-paper-2024
Repository for code used and referenced in 2024 feature extraction paper

File: 2_EIS_02_P190_04_5 20230921 155022.csv
Step number,Repeats,Step name,Elapsed Time  (s),DC Working Electrode (V),DC Current (A),Frequency (Hz),|Z| (Ohms),Phase (deg),Z' (Ohms),-Z" (Ohms),THD (%),Amplitude (A),Amplitude (V),No of Cycles,Duration of Each Frequency (s),IR Compensated DC Working Electrode (V)
2,1,Potentiostatic EIS,60.299,3.45867,-0.00979848,1000000,3.34702,88.4735,0.0891629,-3.34583,1.2567,0.00296338,0.00991851,1430,0.00143,3.45867
2,1,Potentiostatic EIS,60.9914,3.45858,-0.0110323,707946,2.39448,88.0225,0.0826264,-2.39305,1.10526,0.00414195,0.00991793,1340,0.0018928,3.45858
2,1,Potentiostatic EIS,61.7406,3.45854,-0.0122593,501187,1.70839,87.5947,0.0716976,-1.70689,1.31911,0.00582045,0.00994367,1385,0.00276344,3.45854
2,1,Potentiostatic EIS,62.5822,3.45849,-0.0132731,354813,1.21577,86.5286,0.0736151,-1.21354,1.26872,0.00816921,0.00993186,1365,0.00384709,3.45849
2,1,Potentiostatic EIS,63.6844,3.45841,-0.0147662,251189,0.871001,85.5281,0.0679116,-0.868349,1.24997,0.0114196,0.00994644,1340,0.00533464,3.45841
2,1,Potentiostatic EIS,64.8387,3.45835,-0.0159032,177828,0.62439,84.8195,0.0563788,-0.62184,1.454,0.0159641,0.00996781,1355,0.00761973,3.45835
2,1,Potentiostatic EIS,66.5525,3.45821,-0.0183089,125892,0.448521,83.8964,0.0476894,-0.445979,1.54729,0.0222271,0.00996937,1370,0.0108823,3.45821
2,1,Potentiostatic EIS,68.302,3.45812,-0.0200155,89125.1,0.323938,82.3954,0.0428687,-0.321089,1.8443,0.0309382,0.0100221,1365,0.0153156,3.45812
2,1,Potentiostatic EIS,69.9365,3.45799,-0.0219625,63095.7,0.23293,80.8124,0.0371912,-0.229942,1.85132,0.0428114,0.00997214,1290,0.0204451,3.45799
2,1,Potentiostatic EIS,70.6905,3.45797,-0.0233263,44668.3,0.168145,77.9374,0.0351392,-0.164433,2.14139,0.0587391,0.00987655,910,0.0203724,3.45797
2,1,Potentiostatic EIS,71.623,3.45833,-0.0126742,31622.8,0.123259,74.9296,0.032048,-0.119019,4.03823,0.0799598,0.00985598,645,0.0203967,3.45833
2,1,Potentiostatic EIS,72.2814,3.45879,-0.000488133,22387.2,0.0896767,70.9686,0.0292424,-0.0847749,5.9086,0.111191,0.00997129,455,0.0203241,3.45879
2,1,Potentiostatic EIS,72.8921,3.45886,-0.000333667,15848.9,0.0668117,65.4415,0.0277684,-0.0607677,6.49866,0.146072,0.00976025,320,0.0201906,3.45886
2,1,Potentiostatic EIS,73.4972,3.45885,-8.30522e-05,11220.2,0.0515002,58.1624,0.027167,-0.0437518,6.76637,0.191905,0.00988284,225,0.0200532,3.45885
2,1,Potentiostatic EIS,74.1796,3.45903,-0.00070642,7943.27,0.0408502,51.0584,0.0256755,-0.0317727,4.0286,0.258848,0.010574,244,0.0307178,3.45903
2,1,Potentiostatic EIS,74.814,3.45908,0.000200919,5623.41,0.0328397,40.913,0.0248171,-0.0215071,4.7272,0.315849,0.0103724,172,0.0305864,3.45908
2,1,Potentiostatic EIS,75.4484,3.45911,0.000886928,3981.07,0.0291631,30.7069,0.0250742,-0.014892,4.53372,0.34824,0.0101558,122,0.0306451,3.45911
2,1,Potentiostatic EIS,75.9485,3.45914,0.00149033,2818.38,0.0270848,21.9879,0.0251148,-0.0101408,3.99248,0.388615,0.0105256,86,0.030514,3.45914
2,1,Potentiostatic EIS,76.4505,3.45914,0.00143746,1995.26,0.026089,14.6462,0.0252413,-0.0065966,3.28392,0.392264,0.0102338,61,0.0305725,3.45914
2,1,Potentiostatic EIS,76.8654,3.45914,0.00148881,1412.53,0.0257815,8.76525,0.0254804,-0.00392874,2.79523,0.363647,0.00937534,43,0.0304417,3.45914
2,1,Potentiostatic EIS,77.2346,3.45916,0.00157619,999.999,0.0258967,4.35621,0.0258219,-0.00196703,2.40617,0.396,0.0102551,30,0.03,3.45916
2,1,Potentiostatic EIS,77.6046,3.45917,0.00220549,707.945,0.0263038,0.97388,0.0263,-0.000447076,2.11162,0.384012,0.010101,21,0.0296633,3.45917
2,1,Potentiostatic EIS,77.9765,3.45918,0.00221555,501.185,0.0269045,-1.56239,0.0268945,0.00073356,1.95692,0.373561,0.0100504,15,0.029929,3.45918
2,1,Potentiostatic EIS,78.2599,3.45918,0.00213495,354.813,0.0276203,-3.40552,0.0275715,0.00164071,1.81405,0.327138,0.00903564,10,0.0281839,3.45918
2,1,Potentiostatic EIS,78.4985,3.45918,0.00236523,251.188,0.0284585,-4.71478,0.0283622,0.00233916,1.55906,0.335617,0.00955114,8,0.0318487,3.45918
2,1,Potentiostatic EIS,78.7656,3.45918,0.00254461,177.828,0.0293644,-5.50856,0.0292288,0.00281882,1.25216,0.333219,0.00978477,8,0.0449874,3.45918
2,1,Potentiostatic EIS,79.0823,3.45919,0.00262001,125.892,0.0302928,-5.95151,0.0301295,0.00314096,1.00338,0.326193,0.00988131,8,0.0635464,3.45919
2,1,Potentiostatic EIS,79.4698,3.45918,0.00225386,89.1248,0.0312292,-6.08012,0.0310535,0.00330776,0.755829,0.317303,0.0099091,8,0.0897617,3.45918
2,1,Potentiostatic EIS,79.9639,3.45919,0.0025786,63.0956,0.0321502,-5.94146,0.0319775,0.00332794,0.567777,0.308601,0.00992159,8,0.126792,3.45919
2,1,Potentiostatic EIS,80.607,3.4592,0.00224636,44.6682,0.0330141,-5.6578,0.0328533,0.00325476,0.404621,0.293807,0.00969978,8,0.179098,3.4592
2,1,Potentiostatic EIS,81.2917,3.45918,0.00141785,31.6227,0.033777,-5.29834,0.0336327,0.00311903,0.288377,0.292654,0.00988503,2,0.0632458,3.45918
2,1,Potentiostatic EIS,81.7795,3.4592,0.00214026,22.3871,0.0344868,-4.82297,0.0343647,0.00289955,0.269624,0.281154,0.009696,2,0.0893371,3.4592
2,1,Potentiostatic EIS,82.4492,3.45918,0.00175011,15.8489,0.0351026,-4.33512,0.0350022,0.00265341,0.263883,0.279666,0.00981699,2,0.126192,3.45918
2,1,Potentiostatic EIS,83.3736,3.45919,0.00145346,11.2201,0.0356531,-3.89953,0.0355705,0.00242466,0.237435,0.27732,0.00988733,2,0.178251,3.45919
2,1,Potentiostatic EIS,84.6565,3.4592,0.00152956,7.94325,0.0361171,-3.46467,0.0360511,0.00218266,0.221904,0.274568,0.00991659,2,0.251786,3.4592
2,1,Potentiostatic EIS,86.4469,3.45919,0.00132312,5.62339,0.036529,-3.13404,0.0364744,0.00199711,0.209776,0.27194,0.00993372,2,0.355657,3.45919
2,1,Potentiostatic EIS,88.9508,3.45919,0.00109142,3.98106,0.0368537,-2.82812,0.0368089,0.00181836,0.216458,0.269629,0.00993682,2,0.502378,3.45919
2,1,Potentiostatic EIS,92.4613,3.45919,0.000635215,2.81837,0.0371828,-2.6397,0.0371433,0.00171246,0.19683,0.267611,0.0099505,2,0.70963,3.45919
2,1,Potentiostatic EIS,97.4014,3.45919,0.000398473,1.99526,0.0374547,-2.53642,0.037418,0.00165753,0.214312,0.265763,0.00995408,2,1.00238,3.45919
2,1,Potentiostatic EIS,104.36,3.45919,9.31424e-05,1.41253,0.0377459,-2.5076,0.0377097,0.00165146,0.18801,0.263691,0.00995323,2,1.4159,3.45919
2,1,Potentiostatic EIS,114.172,3.45919,-1.99392e-05,0.999995,0.0379823,-2.55367,0.0379446,0.00169231,0.205739,0.262145,0.00995687,2,2.00001,3.45919
2,1,Potentiostatic EIS,128.017,3.45919,9.91662e-06,0.707944,0.0382736,-2.71736,0.0382305,0.00181452,0.224252,0.260065,0.00995361,2,2.82508,3.45919
2,1,Potentiostatic EIS,147.556,3.45918,-0.000117649,0.501186,0.0385693,-2.98655,0.0385169,0.00200952,0.143888,0.258024,0.00995182,2,3.99054,3.45918
2,1,Potentiostatic EIS,175.14,3.45918,-0.000200099,0.354812,0.0389108,-3.30971,0.0388459,0.00224644,0.199834,0.255566,0.00994429,2,5.63679,3.45918
2,1,Potentiostatic EIS,214.07,3.45919,-4.5841e-05,0.251188,0.0393181,-3.7929,0.039232,0.0026009,0.187147,0.253271,0.00995815,2,7.96218,3.45919
2,1,Potentiostatic EIS,269.044,3.45919,-2.95005e-05,0.177827,0.0398023,-4.4144,0.0396843,0.00306357,0.214328,0.250216,0.0099592,2,11.2469,3.45919
2,1,Potentiostatic EIS,346.692,3.45919,-0.000279087,0.125892,0.0403551,-5.16765,0.0401911,0.0036348,0.179564,0.247046,0.00996958,2,15.8867,3.45919
2,1,Potentiostatic EIS,456.344,3.45919,-0.000167545,0.0891246,0.0410097,-6.13848,0.0407745,0.00438524,0.163671,0.242881,0.00996046,2,22.4405,3.45919
2,1,Potentiostatic EIS,611.2,3.45919,0.000154666,0.0630955,0.0417908,-7.36502,0.041446,0.00535717,0.177339,0.238258,0.00995696,2,31.698,3.45919
2,1,Potentiostatic EIS,821.222,3.4592,-0.000242403,0.05,0.0424011,-8.37807,0.0419486,0.00617802,0.162244,0.234929,0.00996123,2,40,3.4592