Folder: feature-extraction-paper-2024/Data/P190/P190_04/EIS_04_P190_04_4

Note: README.md
# feature-extraction-paper-2024
Repository for code used and referenced in 2024 feature extraction paper

File: 2_EIS_04_P190_04_4 20231005 153931.csv
Step number,Repeats,Step name,Elapsed Time  (s),DC Working Electrode (V),DC Current (A),Frequency (Hz),|Z| (Ohms),Phase (deg),Z' (Ohms),-Z" (Ohms),THD (%),Amplitude (A),Amplitude (V),No of Cycles,Duration of Each Frequency (s),IR Compensated DC Working Electrode (V)
2,1,Potentiostatic EIS,60.2986,3.50978,-0.0140937,1000000,1.28331,83.7155,0.140478,-1.2756,1.95646,0.00781484,0.0100288,1430,0.00143,3.50978
2,1,Potentiostatic EIS,61.0648,3.50957,-0.0193298,707946,0.935634,83.545,0.105187,-0.929702,1.96457,0.0107148,0.0100255,1340,0.0018928,3.50957
2,1,Potentiostatic EIS,61.9216,3.50945,-0.0233039,501187,0.677879,82.5422,0.0879857,-0.672144,2.37567,0.014761,0.0100063,1385,0.00276344,3.50945
2,1,Potentiostatic EIS,62.972,3.50929,-0.0268854,354813,0.49062,81.0642,0.0762068,-0.484665,2.73784,0.0203194,0.00996918,1365,0.00384709,3.50929
2,1,Potentiostatic EIS,64.0242,3.50914,-0.0310376,251189,0.357936,79.6272,0.0644472,-0.352086,2.49543,0.0271604,0.00971979,1340,0.00533464,3.50914
2,1,Potentiostatic EIS,65.3641,3.50886,-0.0375026,177828,0.261098,78.0612,0.0540124,-0.255451,2.29434,0.0380342,0.00993069,1355,0.00761973,3.50886
2,1,Potentiostatic EIS,67.2111,3.50861,-0.0428959,125892,0.19176,75.9148,0.0466675,-0.185994,2.86693,0.0519994,0.00997137,1370,0.0108823,3.50861
2,1,Potentiostatic EIS,69.2651,3.50932,-0.0229867,89125.1,0.142573,73.2446,0.0411019,-0.13652,4.11494,0.068686,0.00979243,1365,0.0153156,3.50932
2,1,Potentiostatic EIS,70.721,3.50934,-0.0217258,63095.7,0.1055,69.8793,0.0362918,-0.0990612,4.62512,0.0925176,0.00976081,1290,0.0204451,3.50934
2,1,Potentiostatic EIS,71.3878,3.50924,-0.0223996,44668.3,0.0795045,65.1055,0.0334673,-0.0721173,5.27959,0.122788,0.00976372,910,0.0203724,3.50924
2,1,Potentiostatic EIS,72.0522,3.50939,-0.0211788,31622.8,0.0611427,59.9981,0.0305731,-0.0529501,5.99932,0.162207,0.00991778,645,0.0203967,3.50939
2,1,Potentiostatic EIS,72.715,3.50959,-0.0110798,22387.2,0.0477724,53.6663,0.0283045,-0.0384844,5.87317,0.208291,0.00995065,455,0.0203241,3.50959
2,1,Potentiostatic EIS,73.3963,3.50973,-0.00821698,15848.9,0.0388224,46.2236,0.0268591,-0.0280315,6.04677,0.255853,0.00993278,320,0.0201906,3.50973
2,1,Potentiostatic EIS,74.0779,3.50983,-0.00636646,11220.2,0.0330522,38.2514,0.0259559,-0.0204631,5.56482,0.303208,0.0100219,225,0.0200532,3.50983
2,1,Potentiostatic EIS,74.8964,3.51009,-0.00443149,7943.27,0.0291273,31.8732,0.0247354,-0.0153804,2.94114,0.34754,0.0101229,244,0.0307178,3.51009
2,1,Potentiostatic EIS,75.5316,3.51009,-0.00458638,5623.41,0.0258654,22.656,0.0238695,-0.00996329,3.35595,0.40599,0.0105011,172,0.0305864,3.51009
2,1,Potentiostatic EIS,76.1689,3.51016,-0.00279005,3981.07,0.0250185,15.694,0.0240858,-0.0067675,3.30193,0.408268,0.0102142,122,0.0306451,3.51016
2,1,Potentiostatic EIS,76.7167,3.51019,-0.00174502,2818.38,0.0245197,10.4102,0.0241161,-0.00443055,3.06591,0.423734,0.0103898,86,0.030514,3.51019
2,1,Potentiostatic EIS,77.2234,3.51021,-0.00135508,1995.26,0.0243428,6.1878,0.024201,-0.00262386,2.72611,0.420258,0.0102303,61,0.0305725,3.51021
2,1,Potentiostatic EIS,77.6369,3.51022,-0.00100833,1412.53,0.0244413,2.85348,0.0244109,-0.00121674,2.54295,0.386953,0.00945762,43,0.0304417,3.51022
2,1,Potentiostatic EIS,78.0096,3.51024,-0.000599368,999.999,0.0247347,0.288899,0.0247344,-0.000124718,2.28505,0.414467,0.0102517,30,0.03,3.51024
2,1,Potentiostatic EIS,78.3793,3.51026,-0.000515752,707.945,0.0251781,-1.73381,0.0251666,0.000761791,2.17422,0.400858,0.0100929,21,0.0296633,3.51026
2,1,Potentiostatic EIS,78.752,3.51025,-9.91587e-05,501.185,0.0257522,-3.24224,0.025711,0.00145648,2.02819,0.38977,0.0100374,15,0.029929,3.51025
2,1,Potentiostatic EIS,78.9919,3.51026,6.47192e-05,354.813,0.0263959,-4.27729,0.0263224,0.0019687,1.8859,0.342544,0.00904176,10,0.0281839,3.51026
2,1,Potentiostatic EIS,79.2305,3.51024,-0.00032823,251.188,0.027135,-4.94319,0.0270341,0.00233817,1.63537,0.351409,0.00953547,8,0.0318487,3.51024
2,1,Potentiostatic EIS,79.4978,3.51024,-0.000319565,177.828,0.0279176,-5.27422,0.0277994,0.00256625,1.31658,0.349844,0.00976681,8,0.0449874,3.51024
2,1,Potentiostatic EIS,79.8146,3.51026,7.1948e-05,125.892,0.0286774,-5.30012,0.0285547,0.002649,1.04148,0.34396,0.00986385,8,0.0635464,3.51026
2,1,Potentiostatic EIS,80.2038,3.51025,-0.000171212,89.1248,0.0294265,-5.11504,0.0293094,0.00262355,0.784826,0.336376,0.00989838,8,0.0897617,3.51025
2,1,Potentiostatic EIS,80.6982,3.51026,5.38388e-05,63.0956,0.030106,-4.74304,0.0300029,0.00248938,0.591127,0.329014,0.0099053,8,0.126792,3.51026
2,1,Potentiostatic EIS,81.3425,3.51026,-0.000281182,44.6682,0.0307008,-4.25209,0.0306163,0.00227631,0.413579,0.316712,0.00972332,8,0.179098,3.51026
2,1,Potentiostatic EIS,82.0306,3.51027,-0.000357548,31.6227,0.0312054,-3.70967,0.0311401,0.00201901,0.35509,0.316968,0.00989119,2,0.0632458,3.51027
2,1,Potentiostatic EIS,82.5193,3.51026,-0.00108577,22.3871,0.0315192,-3.17061,0.031471,0.00174331,0.316184,0.307363,0.00968782,2,0.0893371,3.51026
2,1,Potentiostatic EIS,83.189,3.51026,-0.000883286,15.8489,0.0318673,-2.68849,0.0318322,0.00149476,0.944503,0.308006,0.00981531,2,0.126192,3.51026
2,1,Potentiostatic EIS,84.1132,3.51026,-0.00101779,11.2201,0.0321348,-2.26295,0.0321098,0.00126887,0.278881,0.307432,0.00987925,2,0.178251,3.51026
2,1,Potentiostatic EIS,85.3962,3.51026,-0.00116856,7.94325,0.0323187,-1.94823,0.0323,0.00109872,0.266985,0.306594,0.00990871,2,0.251786,3.51026
2,1,Potentiostatic EIS,87.1861,3.51026,-0.00118867,5.62339,0.0324646,-1.69295,0.0324504,0.00095911,0.271564,0.305803,0.00992777,2,0.355657,3.51026
2,1,Potentiostatic EIS,89.6942,3.51025,-0.00131507,3.98106,0.0325937,-1.54965,0.0325818,0.000881437,0.262894,0.30492,0.00993847,2,0.502378,3.51025
2,1,Potentiostatic EIS,93.2045,3.51026,-0.00136126,2.81837,0.0327149,-1.46383,0.0327042,0.000835728,0.28815,0.303975,0.0099445,2,0.70963,3.51026
2,1,Potentiostatic EIS,98.1453,3.51027,-0.00112802,1.99526,0.0328398,-1.43381,0.0328295,0.00082172,0.245021,0.30294,0.0099485,2,1.00238,3.51027
2,1,Potentiostatic EIS,105.104,3.51027,-0.00130216,1.41253,0.0329643,-1.48366,0.0329533,0.00085351,0.25705,0.301844,0.00995009,2,1.4159,3.51027
2,1,Potentiostatic EIS,114.917,3.51026,-0.00135197,0.999995,0.0330769,-1.5725,0.0330645,0.000907695,0.254126,0.300775,0.00994871,2,2.00001,3.51026
2,1,Potentiostatic EIS,128.761,3.51028,-0.001123,0.707944,0.0332073,-1.74566,0.0331919,0.00101159,0.214777,0.29969,0.00995185,2,2.82508,3.51028
2,1,Potentiostatic EIS,148.3,3.51027,-0.00115418,0.501186,0.0333439,-1.97581,0.0333241,0.00114962,0.282533,0.298557,0.00995505,2,3.99054,3.51027
2,1,Potentiostatic EIS,175.884,3.51027,-0.00120236,0.354812,0.0334975,-2.27926,0.033471,0.0013322,0.266433,0.297214,0.00995589,2,5.63679,3.51027
2,1,Potentiostatic EIS,214.815,3.51025,-0.00116886,0.251188,0.033686,-2.69272,0.0336488,0.00158255,0.249926,0.295232,0.00994517,2,7.96218,3.51025
2,1,Potentiostatic EIS,269.789,3.51026,-0.000958655,0.177827,0.0339176,-3.14813,0.0338664,0.00186267,0.240068,0.293209,0.00994494,2,11.2469,3.51026
2,1,Potentiostatic EIS,347.438,3.51026,-0.0011298,0.125892,0.0341579,-3.7513,0.0340847,0.00223481,0.242146,0.291237,0.00994806,2,15.8867,3.51026
2,1,Potentiostatic EIS,457.091,3.51026,-0.000437387,0.0891246,0.03449,-4.53814,0.0343819,0.00272894,0.237078,0.288592,0.00995355,2,22.4405,3.51026
2,1,Potentiostatic EIS,611.948,3.51026,-0.000417652,0.0630955,0.0349236,-5.51631,0.0347618,0.00335717,0.25074,0.284939,0.00995108,2,31.698,3.51026
2,1,Potentiostatic EIS,821.972,3.51027,-0.000370252,0.05,0.0352914,-6.26919,0.0350804,0.00385382,0.215684,0.282026,0.0099531,2,40,3.51027