Folder: feature-extraction-paper-2024/Data/P190/P190_04/EIS_02_P190_04_1

Note: README.md
# feature-extraction-paper-2024
Repository for code used and referenced in 2024 feature extraction paper

File: 2_EIS_02_P190_04_1 20230921 132256.csv
Step number,Repeats,Step name,Elapsed Time  (s),DC Working Electrode (V),DC Current (A),Frequency (Hz),|Z| (Ohms),Phase (deg),Z' (Ohms),-Z" (Ohms),THD (%),Amplitude (A),Amplitude (V),No of Cycles,Duration of Each Frequency (s),IR Compensated DC Working Electrode (V)
2,1,Potentiostatic EIS,60.2975,3.46577,-0.0110904,1000000,2.60897,87.8023,0.10005,-2.60705,0.926794,0.00379447,0.00989928,1430,0.00143,3.46577
2,1,Potentiostatic EIS,61.0241,3.4657,-0.0125456,707946,1.87048,87.6283,0.0774048,-1.86887,0.934851,0.00532045,0.00995171,1340,0.0018928,3.4657
2,1,Potentiostatic EIS,61.8212,3.46563,-0.013959,501187,1.33915,86.9909,0.0702977,-1.3373,0.956116,0.00743758,0.00996004,1385,0.00276344,3.46563
2,1,Potentiostatic EIS,62.6499,3.46555,-0.0156524,354813,0.953901,86.0626,0.0655006,-0.95165,1.04665,0.0104028,0.00992325,1365,0.00384709,3.46555
2,1,Potentiostatic EIS,63.7646,3.4655,-0.0166715,251189,0.685056,85.0498,0.0591133,-0.682501,1.04573,0.0145622,0.00997595,1340,0.00533464,3.4655
2,1,Potentiostatic EIS,64.9956,3.46539,-0.0188738,177828,0.491173,84.3412,0.0484316,-0.488779,1.19432,0.0203332,0.00998717,1355,0.00761973,3.46539
2,1,Potentiostatic EIS,66.6809,3.46526,-0.0214026,125892,0.354469,83.142,0.042327,-0.351932,1.49381,0.0281397,0.00997465,1370,0.0108823,3.46526
2,1,Potentiostatic EIS,68.4316,3.46513,-0.0240575,89125.1,0.255107,81.6718,0.0369506,-0.252416,1.73531,0.0391825,0.00999566,1365,0.0153156,3.46513
2,1,Potentiostatic EIS,70.0814,3.46501,-0.0262652,63095.7,0.183748,79.822,0.0324695,-0.180856,1.84132,0.0527864,0.00969919,1290,0.0204451,3.46501
2,1,Potentiostatic EIS,71.0757,3.46552,-0.0117204,44668.3,0.13311,76.8313,0.030325,-0.12961,4.16209,0.0746884,0.00994179,910,0.0203724,3.46552
2,1,Potentiostatic EIS,71.7435,3.46556,-0.0118014,31622.8,0.0975564,73.5431,0.0276372,-0.0935598,5.35258,0.103162,0.0100642,645,0.0203967,3.46556
2,1,Potentiostatic EIS,72.4197,3.46584,-0.00329706,22387.2,0.0713742,68.854,0.0257479,-0.0665682,6.38063,0.140182,0.0100054,455,0.0203241,3.46584
2,1,Potentiostatic EIS,73.0839,3.46594,-0.001977,15848.9,0.0536509,62.6532,0.0246459,-0.047655,6.86156,0.186721,0.0100177,320,0.0201906,3.46594
2,1,Potentiostatic EIS,73.743,3.46596,-0.000778544,11220.2,0.0417561,54.6038,0.0241863,-0.0340382,6.79848,0.240096,0.0100255,225,0.0200532,3.46596
2,1,Potentiostatic EIS,74.4742,3.46618,-0.00100021,7943.27,0.0338596,46.7651,0.0231935,-0.0246685,3.8964,0.280341,0.00949222,244,0.0307178,3.46618
2,1,Potentiostatic EIS,75.1124,3.46617,-0.00145795,5623.41,0.0278035,36.1395,0.0224536,-0.0163972,4.37793,0.376949,0.0104805,172,0.0305864,3.46617
2,1,Potentiostatic EIS,75.7455,3.46623,0.000268038,3981.07,0.0254756,25.9522,0.0229066,-0.0111487,4.14559,0.401651,0.0102323,122,0.0306451,3.46623
2,1,Potentiostatic EIS,76.2952,3.46624,0.000568099,2818.38,0.0242384,17.7308,0.023087,-0.00738171,3.64533,0.407334,0.00987313,86,0.030514,3.46624
2,1,Potentiostatic EIS,76.7983,3.46627,0.000896526,1995.26,0.0237581,11.1317,0.0233111,-0.00458686,3.01283,0.432533,0.0102762,61,0.0305725,3.46627
2,1,Potentiostatic EIS,77.2564,3.46627,0.000799161,1412.53,0.0237441,5.93022,0.023617,-0.00245317,2.67922,0.377728,0.00896879,43,0.0304417,3.46627
2,1,Potentiostatic EIS,77.6251,3.4663,0.00145262,999.999,0.0240356,2.04532,0.0240203,-0.000857829,2.33394,0.427744,0.0102811,30,0.03,3.4663
2,1,Potentiostatic EIS,77.9929,3.4663,0.00171525,707.945,0.0245416,-0.94016,0.0245383,0.000402682,2.10994,0.411416,0.0100968,21,0.0296633,3.4663
2,1,Potentiostatic EIS,78.3601,3.4663,0.00181231,501.185,0.0251955,-3.16577,0.025157,0.00139142,1.9947,0.398297,0.0100353,15,0.029929,3.4663
2,1,Potentiostatic EIS,78.6384,3.46631,0.00184904,354.813,0.025964,-4.80077,0.0258729,0.00217296,1.85623,0.347796,0.00903017,10,0.0281839,3.46631
2,1,Potentiostatic EIS,78.8759,3.46631,0.0019081,251.188,0.0268368,-5.96116,0.0266917,0.00278712,1.63064,0.356208,0.00955949,8,0.0318487,3.46631
2,1,Potentiostatic EIS,79.1409,3.46631,0.00177188,177.828,0.0278102,-6.68707,0.027621,0.0032384,1.34952,0.352624,0.00980656,8,0.0449874,3.46631
2,1,Potentiostatic EIS,79.4555,3.46631,0.00191497,125.892,0.0288055,-7.07535,0.0285861,0.0035481,1.07035,0.343662,0.00989934,8,0.0635464,3.46631
2,1,Potentiostatic EIS,79.8435,3.4663,0.00206391,89.1248,0.0298258,-7.19094,0.0295912,0.00373348,0.765346,0.332685,0.00992259,8,0.0897617,3.4663
2,1,Potentiostatic EIS,80.3341,3.46629,0.00188624,63.0956,0.0308506,-6.97503,0.0306223,0.0037464,0.56874,0.321791,0.00992747,8,0.126792,3.46629
2,1,Potentiostatic EIS,80.9789,3.46631,0.001799,44.6682,0.0318023,-6.6141,0.0315907,0.00366304,0.410306,0.30677,0.00975601,8,0.179098,3.46631
2,1,Potentiostatic EIS,81.6631,3.46629,0.00195935,31.6227,0.0326904,-6.08933,0.0325059,0.00346776,0.340711,0.3026,0.00989208,2,0.0632458,3.46629
2,1,Potentiostatic EIS,82.1507,3.4663,0.001349,22.3871,0.0334662,-5.47435,0.0333136,0.00319268,0.274498,0.289652,0.00969355,2,0.0893371,3.4663
2,1,Potentiostatic EIS,82.8198,3.4663,0.00120104,15.8489,0.0341272,-4.8782,0.0340036,0.00290211,0.260882,0.287782,0.00982123,2,0.126192,3.4663
2,1,Potentiostatic EIS,83.7438,3.4663,0.00109708,11.2201,0.0346932,-4.28939,0.034596,0.00259485,0.209055,0.284778,0.00987985,2,0.178251,3.4663
2,1,Potentiostatic EIS,85.0267,3.4663,0.000880015,7.94325,0.035169,-3.78876,0.0350921,0.0023239,0.187344,0.281747,0.00990873,2,0.251786,3.4663
2,1,Potentiostatic EIS,86.8154,3.4663,0.000647512,5.62339,0.035594,-3.33441,0.0355337,0.00207027,0.187601,0.279058,0.00993277,2,0.355657,3.4663
2,1,Potentiostatic EIS,89.3158,3.4663,0.000531908,3.98106,0.0359222,-2.99416,0.0358732,0.00187637,0.18892,0.276589,0.00993567,2,0.502378,3.4663
2,1,Potentiostatic EIS,92.8246,3.4663,0.000365527,2.81837,0.0362275,-2.72525,0.0361865,0.00172249,0.17013,0.274517,0.00994506,2,0.70963,3.4663
2,1,Potentiostatic EIS,97.7641,3.4663,0.000195796,1.99526,0.0364745,-2.61625,0.0364365,0.00166493,0.183482,0.27266,0.00994515,2,1.00238,3.4663
2,1,Potentiostatic EIS,104.724,3.4663,-4.47631e-05,1.41253,0.0367263,-2.53614,0.0366903,0.00162512,0.200569,0.2709,0.00994916,2,1.4159,3.4663
2,1,Potentiostatic EIS,114.536,3.46631,4.54031e-06,0.999995,0.0369717,-2.58018,0.0369342,0.00166437,0.175849,0.269348,0.00995826,2,2.00001,3.46631
2,1,Potentiostatic EIS,128.38,3.4663,-0.000174924,0.707944,0.0372695,-2.69718,0.0372282,0.0017538,0.210824,0.267053,0.00995292,2,2.82508,3.4663
2,1,Potentiostatic EIS,147.919,3.4663,-0.000119506,0.501186,0.037553,-2.9455,0.0375033,0.0019297,0.169386,0.265106,0.00995552,2,3.99054,3.4663
2,1,Potentiostatic EIS,175.503,3.4663,-0.000332436,0.354812,0.0378529,-3.2872,0.0377906,0.00217052,0.19512,0.263,0.00995528,2,5.63679,3.4663
2,1,Potentiostatic EIS,214.433,3.4663,-0.000185496,0.251188,0.0382074,-3.73361,0.0381263,0.00248798,0.178108,0.260619,0.00995758,2,7.96218,3.4663
2,1,Potentiostatic EIS,269.407,3.46631,-0.000139546,0.177827,0.0385767,-4.28433,0.0384689,0.00288192,0.202988,0.258245,0.00996223,2,11.2469,3.46631
2,1,Potentiostatic EIS,347.056,3.46629,-0.000299165,0.125892,0.0390041,-5.02475,0.0388542,0.00341621,0.171676,0.255191,0.00995348,2,15.8867,3.46629
2,1,Potentiostatic EIS,456.709,3.4663,-7.915e-06,0.0891246,0.0395514,-5.98443,0.0393358,0.00412355,0.15995,0.251911,0.00996341,2,22.4405,3.4663
2,1,Potentiostatic EIS,611.563,3.4663,0.000264843,0.0630955,0.0401297,-7.15984,0.0398168,0.00500168,0.194362,0.248301,0.00996426,2,31.698,3.4663
2,1,Potentiostatic EIS,821.587,3.46631,0.000127877,0.05,0.0405302,-8.14403,0.0401215,0.00574159,0.154659,0.24576,0.00996068,2,40,3.46631