Folder: feature-extraction-paper-2024/Data/P190/P190_04/EIS_06_P190_04_1

Note: Data/P190/P190_04/EIS_06_P190_04_1/Experiment settings and notes.txt
MEIS_230921_02
System: Windows64
Software Version: Squidstat User Interface v2.06.15.2023

Plus1933, Channel 1
Firmware version: May 22, 2023 Plus 2.4 firmware
Firmware checksum: E7BAB1A9
Potentiostat Stability: Bandwidth Index = 3, Stability Factor = 0.

IR Drop Compensation: 
Uncompensated Resistance (Ohm): 0
Compensation Level (0% - 100%): 0%

Working Electrode Status:
Working electrode is earth grounded.

Data Sampling Options: 
Maximum data averaging period: 1 s
Alpha-Factor:  75%
Show data sampled during experiment "quiet times":  false

Show data sampled during experiment "rest times":  false
Supplementary Notes
Physical Parameters:
Working Electrode Area (m2): 0
Working Electrode Mass (g): 0
Working Electrode Volume (cm3): 0
Battery Capacity (mAh): 0

Reference Electrode:
Other Reference Electrode: 
Working Electrode vs. NHE (V): 0

Other Notes:
P190_04 cell 1 stat 0 cycle 2 deg 22.7C


Experiment Parameters:
Step 1) Open Circuit Potential

Duration: 1 min
Sampling interval: 5 s

Ending Conditions

Maximum Potential: N/A
Minimum Potential: N/A
Minimum potential rate of change: N/A
Append data to the last CSV file that has matching column headers  No
Execute 1 time(s)

Step 2) Potentiostatic EIS

Starting frequency: 1000 kHz
Ending frequency: 50 mHz
Steps per decade: 20  
DC bias potential: 0 V
with respect to: open circuit
AC excitation amplitude: 10 mV 
Minimum Number of Cycles Sampled: <html><img src = ':/GUI/Resources/InformationIcon.png' width = '16' height = '16'>< / html> 2  
Append data to the last CSV file that has matching column headers  No
Save EIS time series data: <html><img src = ':/GUI/Resources/InformationIcon.png' width = '16' height = '16'>< / html>  No
Execute 1 time(s)

Note: README.md
# feature-extraction-paper-2024
Repository for code used and referenced in 2024 feature extraction paper

File: 2_EIS_06_P190_04_1 20231011 161412.csv
Step number,Repeats,Step name,Elapsed Time  (s),DC Working Electrode (V),DC Current (A),Frequency (Hz),|Z| (Ohms),Phase (deg),Z' (Ohms),-Z" (Ohms),THD (%),Amplitude (A),Amplitude (V),No of Cycles,Duration of Each Frequency (s),IR Compensated DC Working Electrode (V)
2,1,Potentiostatic EIS,60.2982,3.50376,-0.0108142,1000000,3.13308,88.4435,0.0851018,-3.13192,0.847356,0.00317173,0.00993754,1430,0.00143,3.50376
2,1,Potentiostatic EIS,60.9847,3.50369,-0.0118906,707946,2.25091,88.0881,0.0750947,-2.24966,0.75258,0.00439714,0.00989754,1340,0.0018928,3.50369
2,1,Potentiostatic EIS,61.7555,3.50363,-0.0131021,501187,1.60157,87.5422,0.0686824,-1.6001,0.854948,0.00622549,0.00997058,1385,0.00276344,3.50363
2,1,Potentiostatic EIS,62.591,3.50357,-0.0143248,354813,1.14264,86.4882,0.0699915,-1.14049,0.892284,0.00869701,0.00993754,1365,0.00384709,3.50357
2,1,Potentiostatic EIS,63.6934,3.50351,-0.0157329,251189,0.817828,85.4949,0.0642387,-0.815301,0.905542,0.0121234,0.00991497,1340,0.00533464,3.50351
2,1,Potentiostatic EIS,64.8867,3.50343,-0.0173175,177828,0.585331,84.6412,0.0546653,-0.582772,1.10977,0.0169935,0.00994687,1355,0.00761973,3.50343
2,1,Potentiostatic EIS,66.5978,3.50331,-0.0194046,125892,0.421128,83.2175,0.0497352,-0.41818,1.26494,0.0237006,0.00998094,1370,0.0108823,3.50331
2,1,Potentiostatic EIS,68.3491,3.50319,-0.0216169,89125.1,0.301767,81.566,0.0442602,-0.298504,1.5068,0.0331565,0.0100055,1365,0.0153156,3.50319
2,1,Potentiostatic EIS,69.9861,3.5031,-0.0234096,63095.7,0.217403,79.4339,0.0398651,-0.213716,1.61327,0.0459073,0.00998036,1290,0.0204451,3.5031
2,1,Potentiostatic EIS,70.7397,3.50304,-0.0243349,44668.3,0.157022,75.9267,0.0381818,-0.152309,1.62086,0.0621206,0.00975454,910,0.0203724,3.50304
2,1,Potentiostatic EIS,71.6538,3.50354,-0.0121678,31622.8,0.115435,72.0702,0.0355368,-0.109829,4.75503,0.0869447,0.0100365,645,0.0203967,3.50354
2,1,Potentiostatic EIS,72.3111,3.50388,-0.00406541,22387.2,0.0849802,66.6401,0.0336952,-0.0780145,5.77181,0.117374,0.00997444,455,0.0203241,3.50388
2,1,Potentiostatic EIS,72.9493,3.50395,-0.00278282,15848.9,0.0645822,59.5459,0.0327334,-0.0556721,6.40782,0.150603,0.00972597,320,0.0201906,3.50395
2,1,Potentiostatic EIS,73.5549,3.504,-0.00233463,11220.2,0.0511909,50.7426,0.0323938,-0.0396377,6.37839,0.193078,0.00988393,225,0.0200532,3.504
2,1,Potentiostatic EIS,74.2372,3.50418,-0.00212289,7943.27,0.0425102,42.6425,0.0312702,-0.0287973,3.68509,0.247684,0.0105291,244,0.0307178,3.50418
2,1,Potentiostatic EIS,74.8702,3.50421,-0.00134433,5623.41,0.0363085,31.9588,0.0308052,-0.0192184,4.16848,0.28387,0.0103069,172,0.0305864,3.50421
2,1,Potentiostatic EIS,75.4595,3.50424,-0.000890617,3981.07,0.0338738,22.8858,0.0312073,-0.0131734,3.941,0.275333,0.00932659,122,0.0306451,3.50424
2,1,Potentiostatic EIS,75.9634,3.50424,-0.00108437,2818.38,0.0326148,15.8413,0.0313762,-0.008903,3.43327,0.318151,0.0103765,86,0.030514,3.50424
2,1,Potentiostatic EIS,76.4655,3.50426,-0.000342896,1995.26,0.0320987,10.1962,0.0315918,-0.0056821,2.95622,0.315328,0.0101216,61,0.0305725,3.50426
2,1,Potentiostatic EIS,76.8366,3.50427,-0.000138434,1412.53,0.0320479,5.96077,0.0318747,-0.0033281,2.59154,0.323775,0.0103763,43,0.0304417,3.50427
2,1,Potentiostatic EIS,77.2071,3.50429,-6.25859e-05,999.999,0.0322774,2.72024,0.0322411,-0.00153186,2.31422,0.314939,0.0101654,30,0.03,3.50429
2,1,Potentiostatic EIS,77.5752,3.50428,-3.42287e-05,707.945,0.0327265,0.340027,0.0327259,-0.000194217,2.14031,0.307284,0.0100563,21,0.0296633,3.50428
2,1,Potentiostatic EIS,77.9437,3.5043,0.000580837,501.185,0.0332881,-1.46102,0.0332773,0.000848739,1.96383,0.301189,0.010026,15,0.029929,3.5043
2,1,Potentiostatic EIS,78.1795,3.5043,1.40404e-05,354.813,0.0339875,-2.76077,0.033948,0.00163704,1.76655,0.271087,0.00921356,10,0.0281839,3.5043
2,1,Potentiostatic EIS,78.4171,3.50428,0.000193045,251.188,0.0347789,-3.65247,0.0347083,0.00221557,1.46807,0.276407,0.00961312,8,0.0318487,3.50428
2,1,Potentiostatic EIS,78.6833,3.50429,0.000463182,177.828,0.03559,-4.22608,0.0354932,0.0026227,1.15982,0.275331,0.00979903,8,0.0449874,3.50429
2,1,Potentiostatic EIS,79.0005,3.50429,0.000439751,125.892,0.0364407,-4.49523,0.0363286,0.00285609,0.903039,0.271173,0.00988174,8,0.0635464,3.50429
2,1,Potentiostatic EIS,79.3894,3.50428,0.000169652,89.1248,0.037309,-4.55742,0.0371911,0.00296451,0.646793,0.265818,0.00991741,8,0.0897617,3.50428
2,1,Potentiostatic EIS,79.8828,3.5043,0.000407096,63.0956,0.0381372,-4.36444,0.0380266,0.00290225,0.492374,0.260228,0.00992438,8,0.126792,3.5043
2,1,Potentiostatic EIS,80.5253,3.50429,0.000104114,44.6682,0.038892,-4.07185,0.0387938,0.00276162,0.344742,0.251188,0.00976919,8,0.179098,3.50429
2,1,Potentiostatic EIS,81.2096,3.50429,-0.000438295,31.6227,0.0395646,-3.69178,0.0394825,0.00254753,0.325606,0.250286,0.00990251,2,0.0632458,3.50429
2,1,Potentiostatic EIS,81.6968,3.50429,3.00151e-05,22.3871,0.0401344,-3.18645,0.0400724,0.00223089,0.236292,0.242535,0.00973393,2,0.0893371,3.50429
2,1,Potentiostatic EIS,82.3657,3.5043,-3.58101e-05,15.8489,0.040613,-2.76917,0.0405655,0.0019621,0.214386,0.242007,0.00982861,2,0.126192,3.5043
2,1,Potentiostatic EIS,83.2894,3.50429,-0.000331133,11.2201,0.0409726,-2.35559,0.040938,0.00168402,0.217812,0.241637,0.00990052,2,0.178251,3.50429
2,1,Potentiostatic EIS,84.5719,3.5043,-0.000293905,7.94325,0.0412386,-2.00659,0.0412133,0.00144395,0.213093,0.240662,0.00992455,2,0.251786,3.5043
2,1,Potentiostatic EIS,86.36,3.5043,-0.000379694,5.62339,0.0414909,-1.74914,0.0414716,0.00126645,0.173474,0.239515,0.0099377,2,0.355657,3.5043
2,1,Potentiostatic EIS,88.8571,3.50429,-0.000473453,3.98106,0.0416318,-1.56506,0.0416163,0.00113705,0.180529,0.239056,0.00995233,2,0.502378,3.50429
2,1,Potentiostatic EIS,92.3657,3.50429,-0.000625685,2.81837,0.0417635,-1.45619,0.04175,0.00106131,0.158204,0.2383,0.00995223,2,0.70963,3.50429
2,1,Potentiostatic EIS,97.3059,3.50429,-0.000877461,1.99526,0.0419067,-1.39451,0.0418943,0.00101986,0.166108,0.237509,0.00995323,2,1.00238,3.50429
2,1,Potentiostatic EIS,104.265,3.50429,-0.00081036,1.41253,0.042038,-1.37392,0.0420259,0.00100795,0.15845,0.237033,0.00996441,2,1.4159,3.50429
2,1,Potentiostatic EIS,114.076,3.50429,-0.000964257,0.999995,0.042244,-1.41406,0.0422312,0.00104248,0.169257,0.235729,0.00995812,2,2.00001,3.50429
2,1,Potentiostatic EIS,127.921,3.5043,-0.000916489,0.707944,0.0424662,-1.51771,0.0424513,0.00112475,0.180893,0.234557,0.00996074,2,2.82508,3.5043
2,1,Potentiostatic EIS,147.459,3.50429,-0.000993502,0.501186,0.0426855,-1.69668,0.0426668,0.00126384,0.123148,0.233331,0.00995985,2,3.99054,3.50429
2,1,Potentiostatic EIS,175.044,3.50431,-0.000677464,0.354812,0.0427867,-1.93238,0.0427624,0.00144277,0.190886,0.232852,0.00996291,2,5.63679,3.50431
2,1,Potentiostatic EIS,213.973,3.5043,-0.000653836,0.251188,0.0427918,-2.2615,0.0427585,0.00168858,0.148193,0.232682,0.00995683,2,7.96218,3.5043
2,1,Potentiostatic EIS,268.946,3.5043,-0.000356044,0.177827,0.0431353,-2.63192,0.0430898,0.00198076,0.167291,0.230924,0.00996101,2,11.2469,3.5043
2,1,Potentiostatic EIS,346.594,3.50428,6.42474e-05,0.125892,0.0430973,-3.13882,0.0430327,0.00235981,0.272492,0.231134,0.00996082,2,15.8867,3.50428
2,1,Potentiostatic EIS,456.245,3.50429,0.000175452,0.0891246,0.0433835,-3.7344,0.0432914,0.00282563,0.164271,0.229617,0.00996163,2,22.4405,3.50429
2,1,Potentiostatic EIS,611.099,3.50429,0.000197015,0.0630955,0.044008,-4.50676,0.0438719,0.003458,0.17727,0.226457,0.00996594,2,31.698,3.50429
2,1,Potentiostatic EIS,821.122,3.50429,0.000507611,0.05,0.0420249,-5.44209,0.0418355,0.00398562,0.197533,0.236946,0.00995765,2,40,3.50429