Folder: feature-extraction-paper-2024/Data/P190/P190_04/EIS_04_P190_04_3

Note: README.md
# feature-extraction-paper-2024
Repository for code used and referenced in 2024 feature extraction paper

File: 2_EIS_04_P190_04_3 20231005 150729.csv
Step number,Repeats,Step name,Elapsed Time  (s),DC Working Electrode (V),DC Current (A),Frequency (Hz),|Z| (Ohms),Phase (deg),Z' (Ohms),-Z" (Ohms),THD (%),Amplitude (A),Amplitude (V),No of Cycles,Duration of Each Frequency (s),IR Compensated DC Working Electrode (V)
2,1,Potentiostatic EIS,60.3007,3.51058,-0.0146156,1000000,3.36434,88.4225,0.0926157,-3.36307,1.10294,0.00296382,0.00997091,1430,0.00143,3.51058
2,1,Potentiostatic EIS,60.9863,3.51052,-0.015614,707946,2.40811,87.8857,0.0888428,-2.40647,1.06798,0.00412066,0.00992309,1340,0.0018928,3.51052
2,1,Potentiostatic EIS,61.733,3.51045,-0.0175655,501187,1.71634,87.4713,0.0757241,-1.71467,1.19809,0.00580701,0.00996683,1385,0.00276344,3.51045
2,1,Potentiostatic EIS,62.5842,3.51036,-0.0192195,354813,1.22527,86.4787,0.0752566,-1.22296,1.17576,0.00811028,0.00993729,1365,0.00384709,3.51036
2,1,Potentiostatic EIS,63.6992,3.51031,-0.0201984,251189,0.879366,85.4908,0.0691347,-0.876644,1.32928,0.0113385,0.00997074,1340,0.00533464,3.51031
2,1,Potentiostatic EIS,64.8657,3.51023,-0.0224601,177828,0.630525,85.0344,0.0545768,-0.628158,1.64768,0.0157708,0.00994394,1355,0.00761973,3.51023
2,1,Potentiostatic EIS,66.5896,3.51011,-0.0253229,125892,0.45442,83.6881,0.0499595,-0.451665,1.65232,0.0219504,0.00997473,1370,0.0108823,3.51011
2,1,Potentiostatic EIS,68.351,3.50999,-0.0282349,89125.1,0.326008,82.6766,0.0415564,-0.323349,1.71474,0.0306256,0.0099842,1365,0.0153156,3.50999
2,1,Potentiostatic EIS,69.9905,3.50988,-0.0306778,63095.7,0.235107,81.1138,0.0363175,-0.232286,1.91284,0.0424793,0.00998723,1290,0.0204451,3.50988
2,1,Potentiostatic EIS,70.8348,3.50982,-0.0319596,44668.3,0.170122,78.5119,0.0338822,-0.166714,2.02555,0.0581596,0.00989422,910,0.0203724,3.50982
2,1,Potentiostatic EIS,71.6392,3.51036,-0.0156558,31622.8,0.12434,75.7916,0.0305192,-0.120536,4.97862,0.0806974,0.0100339,645,0.0203967,3.51036
2,1,Potentiostatic EIS,72.2874,3.51069,-0.00509574,22387.2,0.090334,72.1644,0.0276681,-0.0859924,5.87197,0.110233,0.00995793,455,0.0203241,3.51069
2,1,Potentiostatic EIS,72.9,3.51077,-0.00367881,15848.9,0.0670822,67.192,0.026004,-0.061837,6.65247,0.145589,0.00976648,320,0.0201906,3.51077
2,1,Potentiostatic EIS,73.511,3.51077,-0.00360959,11220.2,0.0511518,60.2949,0.0253476,-0.0444299,7.05754,0.19299,0.00987184,225,0.0200532,3.51077
2,1,Potentiostatic EIS,74.1962,3.51095,-0.003768,7943.27,0.0401335,53.4691,0.0238897,-0.0322487,4.14125,0.263675,0.0105822,244,0.0307178,3.51095
2,1,Potentiostatic EIS,74.8351,3.51099,-0.00220644,5623.41,0.0317521,43.6652,0.0229691,-0.021923,4.89766,0.327237,0.0103905,172,0.0305864,3.51099
2,1,Potentiostatic EIS,75.4662,3.51102,-0.00200972,3981.07,0.0277985,33.2314,0.0232525,-0.0152342,4.70301,0.367349,0.0102117,122,0.0306451,3.51102
2,1,Potentiostatic EIS,76.0116,3.51105,-0.000984131,2818.38,0.0254892,24.1217,0.0232635,-0.0104168,4.21715,0.395202,0.0100734,86,0.030514,3.51105
2,1,Potentiostatic EIS,76.5149,3.51106,-0.00113207,1995.26,0.0243557,16.3338,0.0233727,-0.00684962,3.44126,0.42158,0.0102679,61,0.0305725,3.51106
2,1,Potentiostatic EIS,76.9751,3.51109,-0.000470023,1412.53,0.0239706,10.1153,0.023598,-0.00420996,2.92267,0.367141,0.00880059,43,0.0304417,3.51109
2,1,Potentiostatic EIS,77.3452,3.51109,-0.000443353,999.999,0.02401,5.32842,0.0239063,-0.00222968,2.4718,0.428953,0.0102992,30,0.03,3.51109
2,1,Potentiostatic EIS,77.7154,3.51111,0.000682683,707.945,0.0243461,1.71862,0.0243351,-0.000730163,2.13422,0.415441,0.0101144,21,0.0296633,3.51111
2,1,Potentiostatic EIS,78.086,3.51109,7.02289e-05,501.185,0.0248753,-0.892716,0.0248723,0.000387563,1.94886,0.4039,0.0100472,15,0.029929,3.51109
2,1,Potentiostatic EIS,78.3657,3.5111,0.000433613,354.813,0.0255169,-2.73813,0.0254878,0.00121897,1.84387,0.348514,0.00889301,10,0.0281839,3.5111
2,1,Potentiostatic EIS,78.6029,3.51111,0.000521418,251.188,0.0262859,-3.98961,0.0262222,0.00182885,1.59216,0.359891,0.00946005,8,0.0318487,3.51111
2,1,Potentiostatic EIS,78.8699,3.51111,0.000732507,177.828,0.0270654,-4.72612,0.0269734,0.00222999,1.30863,0.359318,0.00972508,8,0.0449874,3.51111
2,1,Potentiostatic EIS,79.1896,3.51111,0.00034449,125.892,0.027859,-5.02115,0.027752,0.00243831,1.06619,0.353258,0.00984139,8,0.0635464,3.51111
2,1,Potentiostatic EIS,79.5805,3.51111,0.000508814,89.1248,0.0286349,-5.01563,0.0285253,0.00250348,0.81268,0.34513,0.00988278,8,0.0897617,3.51111
2,1,Potentiostatic EIS,80.0749,3.51112,0.00087339,63.0956,0.0293367,-4.73627,0.0292365,0.00242231,0.595423,0.337227,0.00989313,8,0.126792,3.51112
2,1,Potentiostatic EIS,80.7199,3.51113,0.000679272,44.6682,0.029962,-4.29668,0.0298778,0.00224478,0.426024,0.32565,0.00975713,8,0.179098,3.51113
2,1,Potentiostatic EIS,81.4035,3.51111,9.56461e-05,31.6227,0.0304848,-3.78977,0.0304182,0.00201492,0.349507,0.324727,0.00989933,2,0.0632458,3.51111
2,1,Potentiostatic EIS,81.8929,3.51112,0.000466913,22.3871,0.0309071,-3.20507,0.0308587,0.00172801,0.297499,0.313523,0.00968999,2,0.0893371,3.51112
2,1,Potentiostatic EIS,82.5623,3.51111,7.18374e-05,15.8489,0.0312229,-2.73043,0.0311874,0.00148736,0.213889,0.314522,0.00982034,2,0.126192,3.51111
2,1,Potentiostatic EIS,83.4869,3.5111,-0.000236444,11.2201,0.0314751,-2.31477,0.0314494,0.00127126,0.205198,0.313696,0.00987362,2,0.178251,3.5111
2,1,Potentiostatic EIS,84.77,3.51111,-0.000168078,7.94325,0.0316646,-1.97765,0.0316458,0.00109273,0.203737,0.312969,0.00991006,2,0.251786,3.51111
2,1,Potentiostatic EIS,86.5612,3.51111,-0.000513072,5.62339,0.031819,-1.74593,0.0318042,0.000969448,0.198497,0.311843,0.00992253,2,0.355657,3.51111
2,1,Potentiostatic EIS,89.0687,3.51111,-0.000540171,3.98106,0.0319592,-1.56826,0.0319472,0.000874653,0.205174,0.31083,0.00993386,2,0.502378,3.51111
2,1,Potentiostatic EIS,92.5809,3.5111,-0.000747063,2.81837,0.0320757,-1.49685,0.0320648,0.000837882,0.204434,0.309947,0.00994178,2,0.70963,3.5111
2,1,Potentiostatic EIS,97.5205,3.51111,-0.000988571,1.99526,0.0321776,-1.4767,0.032167,0.000829232,0.205185,0.308784,0.00993595,2,1.00238,3.51111
2,1,Potentiostatic EIS,104.48,3.51111,-0.00109847,1.41253,0.0323011,-1.51452,0.0322899,0.000853726,0.195051,0.307762,0.00994105,2,1.4159,3.51111
2,1,Potentiostatic EIS,114.292,3.51111,-0.00101849,0.999995,0.0324361,-1.60705,0.0324233,0.00090966,0.189296,0.306578,0.0099442,2,2.00001,3.51111
2,1,Potentiostatic EIS,128.137,3.51111,-0.00121579,0.707944,0.0325637,-1.74836,0.0325486,0.000993519,0.207435,0.30559,0.00995116,2,2.82508,3.51111
2,1,Potentiostatic EIS,147.677,3.5111,-0.000923778,0.501186,0.0327095,-2.03018,0.032689,0.00115876,0.228198,0.304078,0.00994624,2,3.99054,3.5111
2,1,Potentiostatic EIS,175.262,3.5111,-0.000932194,0.354812,0.0328742,-2.32848,0.0328471,0.00133563,0.195543,0.302462,0.00994321,2,5.63679,3.5111
2,1,Potentiostatic EIS,214.193,3.5111,-0.000743802,0.251188,0.0330762,-2.71842,0.0330389,0.00156872,0.168006,0.300614,0.00994315,2,7.96218,3.5111
2,1,Potentiostatic EIS,269.167,3.5111,-0.000625409,0.177827,0.0333312,-3.21111,0.0332789,0.00186705,0.193597,0.29842,0.0099467,2,11.2469,3.5111
2,1,Potentiostatic EIS,346.815,3.51111,-0.00055997,0.125892,0.0336171,-3.84205,0.0335415,0.00225255,0.194386,0.295901,0.0099473,2,15.8867,3.51111
2,1,Potentiostatic EIS,456.468,3.51109,-0.000468229,0.0891246,0.0339657,-4.61804,0.0338555,0.00273468,0.17376,0.292873,0.00994764,2,22.4405,3.51109
2,1,Potentiostatic EIS,611.325,3.5111,-0.000157452,0.0630955,0.03441,-5.56462,0.0342479,0.00333668,0.16146,0.289217,0.00995197,2,31.698,3.5111
2,1,Potentiostatic EIS,821.348,3.5111,-0.000158726,0.05,0.034751,-6.40069,0.0345344,0.00387407,0.179887,0.286475,0.00995529,2,40,3.5111