Folder: feature-extraction-paper-2024/Data/P190/P190_04/EIS_04_P190_04_2

Note: README.md
# feature-extraction-paper-2024
Repository for code used and referenced in 2024 feature extraction paper

File: 2_EIS_04_P190_04_2 20231005 142829.csv
Step number,Repeats,Step name,Elapsed Time  (s),DC Working Electrode (V),DC Current (A),Frequency (Hz),|Z| (Ohms),Phase (deg),Z' (Ohms),-Z" (Ohms),THD (%),Amplitude (A),Amplitude (V),No of Cycles,Duration of Each Frequency (s),IR Compensated DC Working Electrode (V)
2,1,Potentiostatic EIS,60.2993,3.50816,-0.0129044,1000000,1.42998,85.5518,0.110905,-1.42567,0.808081,0.00703638,0.0100619,1430,0.00143,3.50816
2,1,Potentiostatic EIS,61.0378,3.508,-0.01657,707946,1.03463,85.1136,0.0881306,-1.03087,1.03833,0.00963252,0.00996618,1340,0.0018928,3.508
2,1,Potentiostatic EIS,61.8778,3.50784,-0.0199701,501187,0.744627,84.3446,0.0733795,-0.741003,1.25542,0.0134383,0.0100065,1385,0.00276344,3.50784
2,1,Potentiostatic EIS,62.7883,3.50771,-0.0231489,354813,0.53507,82.8959,0.0661735,-0.530963,1.53781,0.0185939,0.00994905,1365,0.00384709,3.50771
2,1,Potentiostatic EIS,63.9787,3.50755,-0.0265702,251189,0.387832,81.3454,0.0583602,-0.383415,1.68673,0.025532,0.00990198,1340,0.00533464,3.50755
2,1,Potentiostatic EIS,65.2746,3.50733,-0.0314457,177828,0.281126,79.755,0.0500007,-0.276644,1.90718,0.0354246,0.00995885,1355,0.00761973,3.50733
2,1,Potentiostatic EIS,66.886,3.50711,-0.0359731,125892,0.204724,77.394,0.0446799,-0.199789,2.1326,0.0487593,0.00998225,1370,0.0108823,3.50711
2,1,Potentiostatic EIS,69.2263,3.50772,-0.0197596,89125.1,0.14956,74.4758,0.0400291,-0.144104,3.7513,0.0665536,0.00995371,1365,0.0153156,3.50772
2,1,Potentiostatic EIS,70.6862,3.50771,-0.0198926,63095.7,0.11009,70.6853,0.0364129,-0.103893,4.50286,0.0894711,0.0098503,1290,0.0204451,3.50771
2,1,Potentiostatic EIS,71.3561,3.50767,-0.0204901,44668.3,0.0821677,65.1768,0.0344957,-0.074576,5.20793,0.119395,0.00981072,910,0.0203724,3.50767
2,1,Potentiostatic EIS,72.0227,3.50771,-0.0193107,31622.8,0.0631137,58.8561,0.0326417,-0.0540172,5.79473,0.157335,0.00992993,645,0.0203967,3.50771
2,1,Potentiostatic EIS,72.6875,3.50807,-0.0101334,22387.2,0.0494966,51.147,0.0310504,-0.0385459,5.97399,0.201516,0.00997441,455,0.0203241,3.50807
2,1,Potentiostatic EIS,73.3551,3.50815,-0.00838258,15848.9,0.0408764,42.3202,0.0302237,-0.027521,5.66741,0.245761,0.0100457,320,0.0201906,3.50815
2,1,Potentiostatic EIS,74.1039,3.50825,-0.00635363,11220.2,0.0357687,33.1773,0.0299378,-0.0195738,5.08801,0.280463,0.0100318,225,0.0200532,3.50825
2,1,Potentiostatic EIS,74.9206,3.50848,-0.00477558,7943.27,0.0325458,26.1892,0.0292047,-0.0143637,2.75591,0.284166,0.0092484,244,0.0307178,3.50848
2,1,Potentiostatic EIS,75.5542,3.50851,-0.0040226,5623.41,0.0300996,17.2672,0.0287431,-0.0089344,3.05008,0.346408,0.0104267,172,0.0305864,3.50851
2,1,Potentiostatic EIS,76.1469,3.50859,-0.00244093,3981.07,0.0298878,11.3671,0.0293016,-0.00589075,3.02653,0.285871,0.00854407,122,0.0306451,3.50859
2,1,Potentiostatic EIS,76.6538,3.5086,-0.00222273,2818.38,0.0297723,7.01253,0.0295496,-0.00363479,2.74578,0.35024,0.0104274,86,0.030514,3.5086
2,1,Potentiostatic EIS,77.1573,3.50863,-0.00153079,1995.26,0.029883,3.729,0.0298198,-0.00194351,2.65729,0.339363,0.0101412,61,0.0305725,3.50863
2,1,Potentiostatic EIS,77.5287,3.50861,-0.00198519,1412.53,0.0301719,1.2316,0.0301649,-0.000648511,2.40702,0.343942,0.0103774,43,0.0304417,3.50861
2,1,Potentiostatic EIS,77.8984,3.50864,-0.0012885,999.999,0.0305972,-0.669732,0.0305951,0.000357643,2.30891,0.333082,0.0101914,30,0.03,3.50864
2,1,Potentiostatic EIS,78.2683,3.50864,-0.00111117,707.945,0.0311406,-2.07884,0.0311201,0.00112961,2.18162,0.32326,0.0100665,21,0.0296633,3.50864
2,1,Potentiostatic EIS,78.6384,3.50866,-0.000933592,501.185,0.0317754,-3.16876,0.0317269,0.00175645,2.00109,0.315325,0.0100196,15,0.029929,3.50866
2,1,Potentiostatic EIS,78.8782,3.50866,-0.000852345,354.813,0.0324599,-3.93888,0.0323832,0.00222974,1.79374,0.283658,0.0092075,10,0.0281839,3.50866
2,1,Potentiostatic EIS,79.1188,3.50865,-0.000970572,251.188,0.0332253,-4.41254,0.0331268,0.00255626,1.51989,0.289111,0.0096058,8,0.0318487,3.50865
2,1,Potentiostatic EIS,79.3875,3.50866,-0.000975363,177.828,0.0340032,-4.56656,0.0338953,0.00270724,1.19559,0.287946,0.00979108,8,0.0449874,3.50866
2,1,Potentiostatic EIS,79.7055,3.50866,-0.000740469,125.892,0.0347926,-4.59541,0.0346808,0.00278755,0.947893,0.283803,0.00987424,8,0.0635464,3.50866
2,1,Potentiostatic EIS,80.0939,3.50866,-0.000698015,89.1248,0.0355569,-4.39533,0.0354523,0.002725,0.677694,0.278553,0.0099045,8,0.0897617,3.50866
2,1,Potentiostatic EIS,80.5901,3.50865,-0.000987435,63.0956,0.0362474,-4.07681,0.0361557,0.00257696,0.512627,0.273533,0.00991486,8,0.126792,3.50865
2,1,Potentiostatic EIS,81.2357,3.50867,-0.000906806,44.6682,0.036876,-3.68583,0.0367997,0.00237059,0.346683,0.264137,0.00974032,8,0.179098,3.50867
2,1,Potentiostatic EIS,81.9209,3.50866,-0.00118895,31.6227,0.0374127,-3.19815,0.0373544,0.00208723,0.298058,0.264406,0.00989214,2,0.0632458,3.50866
2,1,Potentiostatic EIS,82.41,3.50866,-0.0010759,22.3871,0.0378111,-2.75303,0.0377675,0.00181611,0.222595,0.256595,0.00970222,2,0.0893371,3.50866
2,1,Potentiostatic EIS,83.0801,3.50866,-0.0010618,15.8489,0.0381602,-2.33509,0.0381285,0.00155479,0.204947,0.257447,0.00982424,2,0.126192,3.50866
2,1,Potentiostatic EIS,84.0039,3.50865,-0.00124561,11.2201,0.038408,-1.93911,0.038386,0.00129963,0.218973,0.257249,0.00988044,2,0.178251,3.50865
2,1,Potentiostatic EIS,85.2868,3.50866,-0.00127821,7.94325,0.0386319,-1.68991,0.0386151,0.00113926,0.187605,0.256832,0.00992192,2,0.251786,3.50866
2,1,Potentiostatic EIS,87.0755,3.50866,-0.00136708,5.62339,0.0388131,-1.4835,0.0388001,0.00100483,0.189175,0.256086,0.0099395,2,0.355657,3.50866
2,1,Potentiostatic EIS,89.5739,3.50866,-0.00153168,3.98106,0.0389542,-1.32204,0.0389439,0.000898746,0.187355,0.255357,0.00994723,2,0.502378,3.50866
2,1,Potentiostatic EIS,93.0832,3.50866,-0.00175643,2.81837,0.0391109,-1.26869,0.0391013,0.000865953,0.161334,0.254305,0.0099461,2,0.70963,3.50866
2,1,Potentiostatic EIS,98.023,3.50867,-0.00162998,1.99526,0.0392959,-1.24509,0.0392866,0.000853869,0.177654,0.253233,0.00995104,2,1.00238,3.50867
2,1,Potentiostatic EIS,104.983,3.50866,-0.00182433,1.41253,0.0394659,-1.26153,0.0394563,0.000868882,0.175621,0.252276,0.00995632,2,1.4159,3.50866
2,1,Potentiostatic EIS,114.795,3.50866,-0.00176553,0.999995,0.0396788,-1.3261,0.0396682,0.00091828,0.165521,0.250957,0.00995768,2,2.00001,3.50866
2,1,Potentiostatic EIS,128.64,3.50866,-0.00171957,0.707944,0.0399214,-1.48199,0.039908,0.00103248,0.142014,0.249584,0.00996374,2,2.82508,3.50866
2,1,Potentiostatic EIS,148.179,3.50866,-0.00147455,0.501186,0.0402104,-1.66647,0.0401933,0.00116937,0.190301,0.247795,0.00996391,2,3.99054,3.50866
2,1,Potentiostatic EIS,175.762,3.50865,-0.00138584,0.354812,0.0404929,-1.91329,0.0404704,0.00135194,0.167794,0.246044,0.00996307,2,5.63679,3.50865
2,1,Potentiostatic EIS,214.691,3.50865,-0.00121467,0.251188,0.0408424,-2.21164,0.040812,0.00157614,0.19371,0.243686,0.00995272,2,7.96218,3.50865
2,1,Potentiostatic EIS,269.665,3.50864,-0.00107185,0.177827,0.0411767,-2.60851,0.041134,0.00187401,0.167154,0.241734,0.0099538,2,11.2469,3.50864
2,1,Potentiostatic EIS,347.312,3.50865,-0.00116355,0.125892,0.0420519,-3.07157,0.0419915,0.00225328,0.169982,0.236884,0.00996055,2,15.8867,3.50865
2,1,Potentiostatic EIS,456.964,3.50866,-0.00218725,0.0891246,0.0432233,-4.05137,0.0431153,0.00305376,1.99357,0.23049,0.00996226,2,22.4405,3.50866
2,1,Potentiostatic EIS,611.82,3.50866,-0.000326557,0.0630955,0.0486851,-3.95294,0.0485693,0.0033562,0.174605,0.204676,0.00996468,2,31.698,3.50866
2,1,Potentiostatic EIS,821.842,3.50866,-0.000601295,0.05,0.0493798,-4.49418,0.049228,0.00386929,0.144038,0.201813,0.0099655,2,40,3.50866