Folder: feature-extraction-paper-2024/P190_02/EIS_04_P190_02_4

Note: README.md
# feature-extraction-paper-2024
Repository for code used and referenced in 2024 feature extraction paper

File: 2_EIS_04_P190_02_4 20230825 152904.csv
Step number,Repeats,Step name,Elapsed Time  (s),DC Working Electrode (V),DC Current (A),Frequency (Hz),|Z| (Ohms),Phase (deg),Z' (Ohms),-Z" (Ohms),THD (%),Amplitude (A),Amplitude (V),No of Cycles,Duration of Each Frequency (s),IR Compensated DC Working Electrode (V)
2,1,Potentiostatic EIS,0,3.55149,-0.00883619,1000000,1.30486,85.1263,0.110862,-1.30014,0.800078,0.00770813,0.0100581,1430,0.00143,3.55149
2,1,Potentiostatic EIS,0.247514,3.55138,-0.0118842,794328,1.05388,84.6736,0.0978304,-1.04933,1.12568,0.00930323,0.00980429,1445,0.00181915,3.55138
2,1,Potentiostatic EIS,0.526584,3.55129,-0.0140629,630957.375,0.84551,84.1569,0.0860762,-0.841117,0.975822,0.0117808,0.00996079,1355,0.00214753,3.55129
2,1,Potentiostatic EIS,0.815259,3.5512,-0.0160399,501187.25,0.681078,84.035,0.0707778,-0.67739,1.2609,0.0146468,0.00997556,1385,0.00276344,3.5512
2,1,Potentiostatic EIS,1.12432,3.55109,-0.0186746,398107,0.547223,82.9965,0.066723,-0.54314,1.33574,0.0182241,0.00997265,1400,0.00351664,3.55109
2,1,Potentiostatic EIS,1.59213,3.551,-0.0205714,316228,0.438904,82.4979,0.0573046,-0.435147,1.45069,0.0226796,0.00995416,1370,0.00433232,3.551
2,1,Potentiostatic EIS,1.9616,3.5509,-0.0229322,251189,0.355644,81.316,0.053697,-0.351567,1.68242,0.0273683,0.00973315,1340,0.00533464,3.5509
2,1,Potentiostatic EIS,2.40394,3.55077,-0.0256694,199526,0.285675,80.6625,0.0463508,-0.28189,1.91788,0.0348013,0.00994187,1355,0.00679109,3.55077
2,1,Potentiostatic EIS,2.9101,3.5506,-0.0293819,158489,0.231378,79.2391,0.0432009,-0.22731,1.88939,0.042912,0.00992893,1360,0.00858102,3.5506
2,1,Potentiostatic EIS,3.70443,3.55047,-0.0322423,125893,0.188012,78.0434,0.0389505,-0.183933,2.17525,0.0530523,0.00997447,1370,0.0108823,3.55047
2,1,Potentiostatic EIS,4.79168,3.55092,-0.0210434,100000,0.152585,76.6445,0.035246,-0.148459,3.17836,0.0647722,0.00988338,1370,0.0137,3.55092
2,1,Potentiostatic EIS,5.38837,3.55105,-0.0174346,79432.8,0.124238,74.6559,0.0328755,-0.11981,5.4141,0.0787777,0.00978721,1365,0.0171843,3.55105
2,1,Potentiostatic EIS,5.60716,3.55106,-0.0173028,63095.7,0.101136,72.7351,0.0300162,-0.0965794,4.51349,0.0960102,0.00971025,1290,0.0204451,3.55106
2,1,Potentiostatic EIS,5.83291,3.55107,-0.0171418,50118.75,0.0828993,70.1213,0.0281883,-0.0779597,5.05968,0.11705,0.00970259,1025,0.0204514,3.55107
2,1,Potentiostatic EIS,6.05466,3.55105,-0.0175565,39810.7,0.0682311,67.0492,0.0266061,-0.0628299,5.56803,0.142372,0.00971424,815,0.0204719,3.55105
2,1,Potentiostatic EIS,6.27858,3.55106,-0.0167189,31622.8,0.0568412,63.1654,0.025659,-0.0507201,6.05618,0.172258,0.00979065,645,0.0203967,3.55106
2,1,Potentiostatic EIS,6.49896,3.55137,-0.00889922,25118.9,0.0476258,58.9546,0.0245614,-0.0408038,6.42569,0.206238,0.0098222,510,0.0203034,3.55137
2,1,Potentiostatic EIS,6.72247,3.55144,-0.00744454,19952.6,0.0403598,53.9824,0.0237329,-0.0326445,6.43648,0.246741,0.00995844,405,0.0202981,3.55144
2,1,Potentiostatic EIS,6.95217,3.55149,-0.00672904,15848.9,0.0346671,48.5977,0.0229268,-0.0260033,6.37282,0.290952,0.0100866,320,0.0201906,3.55149
2,1,Potentiostatic EIS,7.17845,3.55152,-0.00551724,12589.2,0.030692,42.6215,0.0225845,-0.0207832,6.1043,0.327428,0.0100494,255,0.0202554,3.55152
2,1,Potentiostatic EIS,7.48554,3.55157,-0.00400204,9999.98,0.0278317,36.715,0.0223104,-0.0166388,2.61946,0.358089,0.00996623,307,0.0307001,3.55157
2,1,Potentiostatic EIS,7.74243,3.5516,-0.00361211,7943.27,0.0257151,31.5695,0.0219094,-0.0134627,3.03904,0.397531,0.0102225,244,0.0307178,3.5516
2,1,Potentiostatic EIS,7.95557,3.55164,-0.00282241,6309.57,0.0232437,25.719,0.020941,-0.0100868,3.53556,0.381493,0.00886729,193,0.0305885,3.55164
2,1,Potentiostatic EIS,8.16812,3.55163,-0.00333398,5011.87,0.0226255,18.4604,0.0214613,-0.00716434,3.3764,0.464343,0.010506,153,0.0305276,3.55163
2,1,Potentiostatic EIS,8.38071,3.55168,-0.00148813,3981.07,0.0224212,13.7135,0.021782,-0.00531531,3.27676,0.458103,0.0102712,122,0.0306451,3.55168
2,1,Potentiostatic EIS,8.55036,3.55174,-0.00045305,3162.27,0.0223141,9.80691,0.021988,-0.00380072,3.16715,0.381238,0.00850696,97,0.0306742,3.55174
2,1,Potentiostatic EIS,8.71907,3.55174,-0.000313903,2511.88,0.0223386,6.52826,0.0221937,-0.00253974,2.85583,0.470504,0.0105104,77,0.0306543,3.55174
2,1,Potentiostatic EIS,8.88674,3.55174,-0.000550739,1995.26,0.0224655,3.75932,0.0224172,-0.00147296,2.62313,0.457904,0.010287,61,0.0305725,3.55174
2,1,Potentiostatic EIS,9.05587,3.55176,-4.03697e-05,1584.89,0.0226826,1.42717,0.0226755,-0.000564939,2.47563,0.445622,0.0101079,48,0.030286,3.55176
2,1,Potentiostatic EIS,9.1828,3.55174,-0.00015888,1258.92,0.0229514,-0.505532,0.0229506,0.000202502,2.42811,0.419194,0.0096211,38,0.0301845,3.55174
2,1,Potentiostatic EIS,9.30582,3.55175,6.2981e-05,999.999,0.0232997,-2.08121,0.0232843,0.000846153,2.34595,0.44071,0.0102684,30,0.03,3.55175
2,1,Potentiostatic EIS,9.42873,3.55179,0.000707809,794.328,0.0236896,-3.4614,0.0236464,0.00143029,2.28487,0.42845,0.0101498,24,0.0302142,3.55179
2,1,Potentiostatic EIS,9.5528,3.55178,0.000428232,630.956,0.0241361,-4.66069,0.0240563,0.00196117,2.22397,0.417369,0.0100737,19,0.030113,3.55178
2,1,Potentiostatic EIS,9.67631,3.55178,0.000973944,501.187,0.0246171,-5.62951,0.0244984,0.00241483,2.14928,0.408011,0.010044,15,0.029929,3.55178
2,1,Potentiostatic EIS,9.75691,3.55178,0.000747658,398.107,0.0251535,-6.52617,0.0249906,0.00285888,2.08945,0.352735,0.00887255,12,0.0301427,3.55178
2,1,Potentiostatic EIS,9.83537,3.55177,0.000586515,316.228,0.025724,-7.37015,0.0255115,0.00329985,1.91984,0.363615,0.00935363,9,0.0284605,3.55177
2,1,Potentiostatic EIS,9.91697,3.55177,0.000691954,251.189,0.0263797,-8.02497,0.0261213,0.00368272,1.75403,0.365965,0.00965403,8,0.0318486,3.55177
2,1,Potentiostatic EIS,10.0056,3.55176,0.000630882,199.526,0.0270668,-8.52038,0.0267681,0.00401025,1.53319,0.36268,0.00981659,8,0.0400951,3.55176
2,1,Potentiostatic EIS,10.1045,3.55176,0.000836487,158.489,0.0278071,-8.96993,0.027467,0.00433557,1.31476,0.35635,0.00990906,8,0.0504766,3.55176
2,1,Potentiostatic EIS,10.2168,3.55176,0.000657506,125.892,0.0285771,-9.30599,0.028201,0.00462111,1.12882,0.348104,0.0099478,8,0.0635464,3.55176
2,1,Potentiostatic EIS,10.3444,3.55177,0.00069756,100,0.0294334,-9.52822,0.0290274,0.00487222,0.898237,0.338493,0.009963,8,0.08,3.55177
2,1,Potentiostatic EIS,10.497,3.55177,0.000927238,79.4327,0.030298,-9.60129,0.0298736,0.00505344,0.741758,0.328755,0.00996063,8,0.100714,3.55177
2,1,Potentiostatic EIS,10.6759,3.55177,0.000715879,63.0956,0.0311977,-9.55208,0.0307652,0.00517708,0.607614,0.319108,0.00995543,8,0.126792,3.55177
2,1,Potentiostatic EIS,11.07,3.55174,0.000271541,50.1186,0.0321175,-9.33975,0.0316917,0.0052123,0.488358,0.311437,0.0100026,8,0.159621,3.55174
2,1,Potentiostatic EIS,11.3297,3.55176,0.000139249,39.8107,0.0330043,-9.09648,0.0325893,0.0052179,0.399909,0.296983,0.00980175,8,0.200951,3.55176
2,1,Potentiostatic EIS,11.473,3.55176,0.000517686,31.6228,0.0339187,-8.67057,0.033531,0.00511334,0.33949,0.291967,0.00990302,2,0.0632456,3.55176
2,1,Potentiostatic EIS,11.6349,3.55178,0.000232441,25.1188,0.0347181,-8.17633,0.0343652,0.00493761,0.27838,0.278217,0.00965923,2,0.0796217,3.55178
2,1,Potentiostatic EIS,11.8342,3.55178,0.000197159,19.9526,0.0355112,-7.62747,0.035197,0.00471346,0.23949,0.274667,0.00975382,2,0.100238,3.55178
2,1,Potentiostatic EIS,12.0814,3.55176,8.18368e-05,15.8489,0.0362414,-7.02514,0.0359693,0.0044325,0.229344,0.271143,0.00982653,2,0.126192,3.55176
2,1,Potentiostatic EIS,12.3881,3.55176,0.00022872,12.5892,0.0368914,-6.40407,0.0366612,0.00411486,0.226786,0.26765,0.00987402,2,0.158866,3.55176
2,1,Potentiostatic EIS,12.7694,3.55176,4.01706e-05,9.99998,0.0374596,-5.7765,0.0372694,0.00377025,0.208185,0.264483,0.00990743,2,0.2,3.55176
2,1,Potentiostatic EIS,13.2448,3.55177,-7.66362e-05,7.94328,0.037919,-5.15097,0.0377659,0.00340438,0.197985,0.261684,0.00992282,2,0.251785,3.55177
2,1,Potentiostatic EIS,13.838,3.55178,2.29392e-05,6.30957,0.0383646,-4.62828,0.0382395,0.00309567,0.195121,0.258967,0.00993513,2,0.316979,3.55178
2,1,Potentiostatic EIS,14.5814,3.55177,-0.000167988,5.01186,0.0387012,-4.12063,0.0386012,0.00278094,0.17774,0.25681,0.00993885,2,0.399053,3.55177
2,1,Potentiostatic EIS,15.5094,3.55176,-8.01154e-05,3.98106,0.0390029,-3.71156,0.0389211,0.0025248,0.201299,0.255015,0.00994633,2,0.502378,3.55176
2,1,Potentiostatic EIS,16.6745,3.55177,-0.00016016,3.16227,0.0392695,-3.32221,0.0392035,0.00227571,0.197058,0.253455,0.00995304,2,0.632458,3.55177
2,1,Potentiostatic EIS,18.137,3.55176,-0.000721603,2.51188,0.0395073,-3.057,0.0394511,0.0021069,0.182905,0.251804,0.0099481,2,0.796216,3.55176
2,1,Potentiostatic EIS,19.9747,3.55178,-0.000488478,1.99526,0.0397105,-2.78625,0.0396636,0.00193033,0.175317,0.25051,0.00994787,2,1.00238,3.55178
2,1,Potentiostatic EIS,22.2848,3.55178,-0.000426147,1.58489,0.0399207,-2.62012,0.039879,0.00182493,0.174893,0.249424,0.00995722,2,1.26192,3.55178
2,1,Potentiostatic EIS,25.1895,3.55178,-0.000753006,1.25892,0.0401245,-2.46746,0.0400873,0.00172744,0.168754,0.247866,0.0099455,2,1.58866,3.55178
2,1,Potentiostatic EIS,28.8414,3.55178,-0.000447763,0.999998,0.0402979,-2.3809,0.0402631,0.00167408,0.178528,0.247102,0.0099577,2,2,3.55178
2,1,Potentiostatic EIS,33.4373,3.55178,-0.000471625,0.794327,0.0404519,-2.32597,0.0404186,0.00164173,0.151774,0.246222,0.0099601,2,2.51785,3.55178
2,1,Potentiostatic EIS,39.2161,3.55177,-0.000909286,0.630956,0.0405954,-2.33442,0.0405617,0.00165353,0.166503,0.245193,0.00995368,2,3.16979,3.55177
2,1,Potentiostatic EIS,46.4901,3.55178,-0.000379993,0.501186,0.0407705,-2.35872,0.0407359,0.00167794,0.134524,0.244379,0.00996347,2,3.99054,3.55178
2,1,Potentiostatic EIS,53.7803,3.55178,-0.000397725,0.5,0.0407489,-2.33715,0.040715,0.00166173,0.123289,0.244437,0.00996055,2,4,3.55178