Folder: feature-extraction-paper-2024/P190_02/EIS_04_P190_02_2

Note: README.md
# feature-extraction-paper-2024
Repository for code used and referenced in 2024 feature extraction paper

File: 2_EIS_04_P190_02_2 20230825 152049.csv
Step number,Repeats,Step name,Elapsed Time  (s),DC Working Electrode (V),DC Current (A),Frequency (Hz),|Z| (Ohms),Phase (deg),Z' (Ohms),-Z" (Ohms),THD (%),Amplitude (A),Amplitude (V),No of Cycles,Duration of Each Frequency (s),IR Compensated DC Working Electrode (V)
2,1,Potentiostatic EIS,0,3.55423,-0.00803362,1000000,1.36567,84.377,0.13381,-1.3591,1.03459,0.00735635,0.0100465,1430,0.00143,3.55423
2,1,Potentiostatic EIS,0.244605,3.5541,-0.0103329,794328,1.10293,83.9338,0.116554,-1.09675,1.09242,0.00888751,0.00980163,1445,0.00181915,3.5541
2,1,Potentiostatic EIS,0.52879,3.55401,-0.0118744,630957.375,0.884953,83.1821,0.105057,-0.878695,1.08367,0.0112646,0.00996875,1355,0.00214753,3.55401
2,1,Potentiostatic EIS,0.826063,3.55392,-0.0138683,501187.25,0.711504,83.0564,0.0860153,-0.706286,1.26293,0.014028,0.00998105,1385,0.00276344,3.55392
2,1,Potentiostatic EIS,1.12949,3.55379,-0.0158266,398107,0.572485,81.8385,0.0812719,-0.566686,1.53102,0.0174404,0.00998436,1400,0.00351664,3.55379
2,1,Potentiostatic EIS,1.45562,3.55371,-0.0171248,316228,0.459685,80.8981,0.0727182,-0.453896,1.55293,0.0216401,0.00994761,1370,0.00433232,3.55371
2,1,Potentiostatic EIS,1.85855,3.55361,-0.0192587,251189,0.372365,79.6078,0.0671692,-0.366256,1.61512,0.0268117,0.00998378,1340,0.00533464,3.55361
2,1,Potentiostatic EIS,2.29787,3.55348,-0.0214584,199526,0.299826,78.5162,0.0596925,-0.293824,1.96649,0.0331591,0.00994199,1355,0.00679109,3.55348
2,1,Potentiostatic EIS,2.79315,3.55332,-0.0241473,158489,0.243416,76.6608,0.0561599,-0.236849,2.09053,0.040916,0.00995967,1360,0.00858102,3.55332
2,1,Potentiostatic EIS,3.36858,3.55318,-0.0263107,125893,0.198793,74.9112,0.051749,-0.191939,2.11932,0.0501962,0.0099786,1370,0.0108823,3.55318
2,1,Potentiostatic EIS,4.24095,3.55298,-0.0285407,100000,0.162135,72.2493,0.0494312,-0.154416,2.0394,0.0614981,0.00997102,1370,0.0137,3.55298
2,1,Potentiostatic EIS,5.34365,3.55377,-0.01443,79432.8,0.132702,69.4355,0.0466131,-0.124246,4.85979,0.0753161,0.00999455,1365,0.0171843,3.55377
2,1,Potentiostatic EIS,5.55899,3.55379,-0.014189,63095.7,0.109209,66.35,0.0438091,-0.100037,4.17351,0.089728,0.00979921,1290,0.0204451,3.55379
2,1,Potentiostatic EIS,5.78215,3.5538,-0.014172,50118.75,0.0908588,62.4238,0.042061,-0.0805369,4.68956,0.108002,0.00981304,1025,0.0204514,3.5538
2,1,Potentiostatic EIS,6.00687,3.55381,-0.0139345,39810.7,0.076457,58.221,0.0402656,-0.064995,5.0758,0.129285,0.00988457,815,0.0204719,3.55381
2,1,Potentiostatic EIS,6.23056,3.55381,-0.0135739,31622.8,0.0655737,52.977,0.0394842,-0.0523537,5.5801,0.152875,0.0100245,645,0.0203967,3.55381
2,1,Potentiostatic EIS,6.4504,3.55416,-0.00719682,25118.9,0.0569383,47.636,0.0383673,-0.0420705,5.5629,0.17769,0.0101171,510,0.0203034,3.55416
2,1,Potentiostatic EIS,6.66946,3.55425,-0.00573583,19952.6,0.0504691,41.8503,0.037594,-0.0336723,5.59972,0.201238,0.0101564,405,0.0202981,3.55425
2,1,Potentiostatic EIS,6.89579,3.5543,-0.0048782,15848.9,0.0454604,36.075,0.0367432,-0.0267691,5.53571,0.221157,0.0100542,320,0.0201906,3.5543
2,1,Potentiostatic EIS,7.12205,3.55436,-0.00365668,12589.2,0.0421113,30.4096,0.0363181,-0.0213158,4.99281,0.237282,0.00999238,255,0.0202554,3.55436
2,1,Potentiostatic EIS,7.38345,3.55436,-0.00315411,9999.98,0.0399286,25.3681,0.0360784,-0.0171067,2.30501,0.253434,0.0101193,307,0.0307001,3.55436
2,1,Potentiostatic EIS,7.59655,3.55438,-0.00286899,7943.27,0.0382938,21.0814,0.0357308,-0.0137741,2.68014,0.27746,0.010625,244,0.0307178,3.55438
2,1,Potentiostatic EIS,7.80774,3.55444,-0.00206227,6309.57,0.0362631,16.5715,0.0347569,-0.0103427,3.05095,0.287107,0.0104114,193,0.0305885,3.55444
2,1,Potentiostatic EIS,8.02101,3.55445,-0.00187976,5011.87,0.0361041,11.7151,0.035352,-0.00733079,3.12301,0.281144,0.0101505,153,0.0305276,3.55445
2,1,Potentiostatic EIS,8.18938,3.55446,-0.00142589,3981.07,0.0360933,8.59864,0.0356876,-0.00539638,3.06115,0.290266,0.0104767,122,0.0306451,3.55446
2,1,Potentiostatic EIS,8.36153,3.55447,-0.00131642,3162.27,0.0361078,6.17146,0.0358986,-0.00388174,2.9685,0.288033,0.0104003,97,0.0306742,3.55447
2,1,Potentiostatic EIS,8.53079,3.55451,-0.000603062,2511.88,0.0362388,4.06034,0.0361479,-0.00256596,2.93056,0.281075,0.0101858,77,0.0306543,3.55451
2,1,Potentiostatic EIS,8.65368,3.55451,-0.000845516,1995.26,0.0363451,2.32273,0.0363152,-0.001473,2.72498,0.264057,0.00959718,61,0.0305725,3.55451
2,1,Potentiostatic EIS,8.77745,3.55452,-0.000517763,1584.89,0.0365205,0.88933,0.0365161,-0.000566839,2.6773,0.283922,0.010369,48,0.030286,3.55452
2,1,Potentiostatic EIS,8.90111,3.5545,-0.000801485,1258.92,0.0367763,-0.385838,0.0367755,0.000247655,2.61096,0.278144,0.0102291,38,0.0301845,3.5545
2,1,Potentiostatic EIS,9.02408,3.55452,-0.00055102,999.999,0.0370785,-1.40361,0.0370674,0.000908242,2.53395,0.273098,0.0101261,30,0.03,3.55452
2,1,Potentiostatic EIS,9.14961,3.55451,-0.000598591,794.328,0.0374452,-2.27858,0.0374156,0.00148876,2.4275,0.268729,0.0100626,24,0.0302142,3.55451
2,1,Potentiostatic EIS,9.23081,3.55452,-0.000568836,630.956,0.0379104,-3.08005,0.0378557,0.00203697,2.31125,0.230333,0.00873204,19,0.030113,3.55452
2,1,Potentiostatic EIS,9.30971,3.55454,-0.000174605,501.187,0.0383608,-3.74674,0.0382788,0.00250674,2.13894,0.229169,0.00879112,15,0.029929,3.55454
2,1,Potentiostatic EIS,9.38999,3.55453,-0.000209428,398.107,0.0388662,-4.37756,0.0387528,0.0029666,1.93755,0.237815,0.00924298,12,0.0301427,3.55453
2,1,Potentiostatic EIS,9.46934,3.55453,-5.25432e-05,316.228,0.0394525,-4.90423,0.0393081,0.00337282,1.73713,0.24213,0.00955263,9,0.0284605,3.55453
2,1,Potentiostatic EIS,9.54998,3.55453,-0.00017876,251.189,0.0400559,-5.38991,0.0398788,0.00376257,1.51312,0.242897,0.00972947,8,0.0318486,3.55453
2,1,Potentiostatic EIS,9.63929,3.55453,-0.000117151,199.526,0.0407835,-5.79383,0.0405752,0.00411706,1.27186,0.241431,0.00984639,8,0.0400951,3.55453
2,1,Potentiostatic EIS,9.73982,3.55454,-0.000150249,158.489,0.0414861,-6.1216,0.0412496,0.00442404,1.05774,0.238837,0.00990841,8,0.0504766,3.55454
2,1,Potentiostatic EIS,9.8532,3.55452,-0.000186323,125.892,0.0422561,-6.43209,0.0419901,0.00473376,0.88416,0.235249,0.00994071,8,0.0635464,3.55452
2,1,Potentiostatic EIS,9.98252,3.55453,-0.00028017,100,0.043083,-6.66921,0.0427915,0.00500354,0.688423,0.23106,0.00995475,8,0.08,3.55453
2,1,Potentiostatic EIS,10.1339,3.55453,-0.000148511,79.4327,0.0439584,-6.76151,0.0436527,0.00517552,0.549324,0.226581,0.00996013,8,0.100714,3.55453
2,1,Potentiostatic EIS,10.314,3.55453,-0.000310497,63.0956,0.04487,-6.77315,0.0445568,0.0052919,0.434993,0.22194,0.00995843,8,0.126792,3.55453
2,1,Potentiostatic EIS,10.5272,3.55454,8.58812e-05,50.1186,0.0458326,-6.73668,0.0455162,0.00537647,0.371859,0.213395,0.00978045,8,0.159621,3.55454
2,1,Potentiostatic EIS,10.785,3.55452,-0.000549186,39.8107,0.0467853,-6.56044,0.046479,0.00534528,0.293179,0.209778,0.00981453,8,0.200951,3.55452
2,1,Potentiostatic EIS,10.9293,3.55452,-0.00124873,31.6228,0.047675,-6.34721,0.0473828,0.00527063,0.287058,0.208054,0.00991907,2,0.0632456,3.55452
2,1,Potentiostatic EIS,11.0914,3.55451,-0.00078347,25.1188,0.048604,-5.96389,0.0483409,0.00505003,0.209429,0.199042,0.00967417,2,0.0796217,3.55451
2,1,Potentiostatic EIS,11.291,3.55452,-0.000651408,19.9526,0.0494411,-5.59337,0.0492056,0.00481891,0.205453,0.197769,0.00977784,2,0.100238,3.55452
2,1,Potentiostatic EIS,11.5381,3.55454,-0.000423564,15.8489,0.0501958,-5.14905,0.0499932,0.00450491,0.188039,0.19615,0.00984582,2,0.126192,3.55454
2,1,Potentiostatic EIS,11.8446,3.55453,-0.000569418,12.5892,0.050846,-4.69441,0.0506754,0.0041613,0.21675,0.194563,0.0098927,2,0.158866,3.55453
2,1,Potentiostatic EIS,12.2255,3.55452,-0.000721276,9.99998,0.0514518,-4.23866,0.0513111,0.00380286,0.185366,0.192794,0.00991968,2,0.2,3.55452
2,1,Potentiostatic EIS,12.6996,3.55453,-0.000216529,7.94328,0.0519625,-3.79432,0.0518486,0.00343862,0.193001,0.191225,0.0099365,2,0.251785,3.55453
2,1,Potentiostatic EIS,13.2909,3.55453,-0.000600959,6.30957,0.0524843,-3.40979,0.0523914,0.0031216,0.164615,0.189705,0.00995655,2,0.316979,3.55453
2,1,Potentiostatic EIS,14.0311,3.55452,-0.000816273,5.01186,0.0528525,-3.05941,0.0527772,0.00282081,0.154503,0.18828,0.00995108,2,0.399053,3.55452
2,1,Potentiostatic EIS,14.9576,3.55453,-0.000683102,3.98106,0.0531161,-2.76932,0.053054,0.0025663,0.156901,0.187591,0.00996409,2,0.502378,3.55453
2,1,Potentiostatic EIS,16.1218,3.55452,-0.0007629,3.16227,0.0533077,-2.50982,0.0532566,0.00233438,0.167109,0.186994,0.0099682,2,0.632458,3.55452
2,1,Potentiostatic EIS,17.5844,3.55453,-0.000813529,2.51188,0.0536994,-2.25447,0.0536578,0.00211242,0.184452,0.185651,0.00996937,2,0.796216,3.55453
2,1,Potentiostatic EIS,19.4223,3.55453,-0.00137548,1.99526,0.0539109,-2.08731,0.0538751,0.00196356,0.165315,0.184847,0.00996518,2,1.00238,3.55453
2,1,Potentiostatic EIS,21.733,3.55453,-0.00127322,1.58489,0.0539097,-1.97082,0.0538778,0.00185398,0.172432,0.185015,0.00997411,2,1.26192,3.55453
2,1,Potentiostatic EIS,24.638,3.55454,-0.00104299,1.25892,0.0542124,-1.85958,0.0541839,0.0017592,0.162751,0.183837,0.00996627,2,1.58866,3.55454
2,1,Potentiostatic EIS,28.2898,3.55453,-0.00130836,0.999998,0.054467,-1.79163,0.0544404,0.0017029,0.148563,0.183115,0.00997372,2,2,3.55453
2,1,Potentiostatic EIS,32.8844,3.55454,-0.00105881,0.794327,0.0548324,-1.72136,0.0548077,0.0016471,0.175895,0.181982,0.0099784,2,2.51785,3.55454
2,1,Potentiostatic EIS,38.6643,3.55453,-0.00106982,0.630956,0.0545506,-1.73981,0.0545255,0.0016562,0.180682,0.182794,0.00997149,2,3.16979,3.55453
2,1,Potentiostatic EIS,45.9395,3.55454,-0.00130683,0.501186,0.0548209,-1.74585,0.0547954,0.00167018,0.243478,0.181868,0.00997013,2,3.99054,3.55454
2,1,Potentiostatic EIS,53.2299,3.55452,-0.00130484,0.5,0.0552022,-1.76369,0.055176,0.00169898,0.199489,0.180714,0.00997578,2,4,3.55452