Folder: feature-extraction-paper-2024/P190_02/EIS_06_P190_02_1

Note: README.md
# feature-extraction-paper-2024
Repository for code used and referenced in 2024 feature extraction paper

File: 2_EIS_06_P190_02_1 20230829 112508.csv
Step number,Repeats,Step name,Elapsed Time  (s),DC Working Electrode (V),DC Current (A),Frequency (Hz),|Z| (Ohms),Phase (deg),Z' (Ohms),-Z" (Ohms),THD (%),Amplitude (A),Amplitude (V),No of Cycles,Duration of Each Frequency (s),IR Compensated DC Working Electrode (V)
2,1,Potentiostatic EIS,0,3.55549,-0.0103082,1000000,3.12432,88.1881,0.0987846,-3.12276,0.889459,0.00317994,0.00993528,1430,0.00143,3.55549
2,1,Potentiostatic EIS,0.22671,3.55543,-0.0114744,794328,2.50977,87.4281,0.112622,-2.50725,1.10183,0.00394879,0.00991037,1445,0.00181915,3.55543
2,1,Potentiostatic EIS,0.462797,3.5554,-0.0119138,630957.375,1.99881,86.9699,0.105657,-1.99602,0.992948,0.00486643,0.00972726,1355,0.00214753,3.5554
2,1,Potentiostatic EIS,0.731942,3.55535,-0.0128425,501187.25,1.59377,86.9417,0.0850305,-1.5915,0.950295,0.00624366,0.00995095,1385,0.00276344,3.55535
2,1,Potentiostatic EIS,1.01553,3.55531,-0.013508,398107,1.27738,86.2284,0.0840255,-1.27461,1.03329,0.00780094,0.00996478,1400,0.00351664,3.55531
2,1,Potentiostatic EIS,1.31362,3.55528,-0.0141835,316228,1.01591,85.5355,0.0790802,-1.01283,1.10355,0.0097788,0.0099344,1370,0.00433232,3.55528
2,1,Potentiostatic EIS,1.79561,3.55522,-0.0149439,251189,0.817346,84.8627,0.0731877,-0.814062,1.05163,0.0121196,0.00990607,1340,0.00533464,3.55522
2,1,Potentiostatic EIS,2.20459,3.55517,-0.0160274,199526,0.650796,84.4773,0.0626327,-0.647775,1.1411,0.0152289,0.00991088,1355,0.00679109,3.55517
2,1,Potentiostatic EIS,2.66515,3.55512,-0.0169245,158489,0.524597,83.2918,0.0612794,-0.521005,1.31991,0.0189684,0.00995075,1360,0.00858102,3.55512
2,1,Potentiostatic EIS,3.28154,3.55502,-0.0185445,125893,0.422583,82.3519,0.0562407,-0.418824,1.43486,0.0236291,0.00998531,1370,0.0108823,3.55502
2,1,Potentiostatic EIS,3.90918,3.55496,-0.0195669,100000,0.337696,81.2843,0.0511717,-0.333797,1.61343,0.0295232,0.00996988,1370,0.0137,3.55496
2,1,Potentiostatic EIS,4.5808,3.55487,-0.0208358,79432.8,0.272911,79.9112,0.0478071,-0.268691,2.12891,0.0366176,0.00999335,1365,0.0171843,3.55487
2,1,Potentiostatic EIS,4.82444,3.55482,-0.022554,63095.7,0.219571,78.3274,0.0444234,-0.21503,1.78961,0.0454757,0.00998514,1290,0.0204451,3.55482
2,1,Potentiostatic EIS,5.07579,3.55474,-0.0232627,50118.75,0.174524,76.5617,0.0405589,-0.169745,1.77185,0.0563708,0.00983826,1025,0.0204514,3.55474
2,1,Potentiostatic EIS,5.37554,3.55473,-0.0228434,39810.7,0.144066,73.718,0.0403911,-0.138288,1.87507,0.0677141,0.00975546,815,0.0204719,3.55473
2,1,Potentiostatic EIS,5.70929,3.55516,-0.0148353,31622.8,0.118081,70.5252,0.0393674,-0.111326,4.16483,0.0825157,0.00974438,645,0.0203967,3.55516
2,1,Potentiostatic EIS,5.93497,3.55559,-0.00648398,25118.9,0.0968437,67.1219,0.03765,-0.0892254,5.46839,0.103772,0.0100496,510,0.0203034,3.55559
2,1,Potentiostatic EIS,6.15361,3.55566,-0.00602752,19952.6,0.080001,62.8927,0.0364531,-0.0712132,6.02271,0.125432,0.0100346,405,0.0202981,3.55566
2,1,Potentiostatic EIS,6.35503,3.5557,-0.00510917,15848.9,0.0669175,58.2787,0.0351844,-0.0569211,6.40748,0.146414,0.00979759,320,0.0201906,3.5557
2,1,Potentiostatic EIS,6.55835,3.5557,-0.00479176,12589.2,0.0572842,52.7485,0.034675,-0.0455974,6.42624,0.173652,0.00994756,255,0.0202554,3.5557
2,1,Potentiostatic EIS,6.86339,3.55565,-0.00462715,9999.98,0.0501362,47.0099,0.0341865,-0.0366732,3.06417,0.199726,0.0100135,307,0.0307001,3.55565
2,1,Potentiostatic EIS,7.07552,3.55568,-0.00431162,7943.27,0.0446464,41.3283,0.0335267,-0.0294833,3.69236,0.235029,0.0104932,244,0.0307178,3.55568
2,1,Potentiostatic EIS,7.28803,3.55572,-0.00365609,6309.57,0.039788,35.3332,0.0324591,-0.0230106,4.15684,0.259993,0.0103446,193,0.0305885,3.55572
2,1,Potentiostatic EIS,7.50021,3.55573,-0.00341826,5011.87,0.0371798,28.1578,0.0327796,-0.0175452,4.18898,0.273584,0.0101718,153,0.0305276,3.55573
2,1,Potentiostatic EIS,7.6682,3.55574,-0.00308968,3981.07,0.0357259,22.4336,0.0330222,-0.0136334,4.00472,0.276209,0.00986781,122,0.0306451,3.55574
2,1,Potentiostatic EIS,7.83551,3.55573,-0.00321824,3162.27,0.0347505,17.5642,0.0331304,-0.0104868,3.69064,0.300544,0.0104441,97,0.0306742,3.55573
2,1,Potentiostatic EIS,8.00657,3.55575,-0.00293479,2511.88,0.034166,13.4161,0.0332336,-0.00792726,3.25515,0.299923,0.0102472,77,0.0306543,3.55575
2,1,Potentiostatic EIS,8.13092,3.55577,-0.00281641,1995.26,0.0338901,9.83889,0.0333916,-0.00579108,2.92622,0.256567,0.00869508,61,0.0305725,3.55577
2,1,Potentiostatic EIS,8.25576,3.55577,-0.0026916,1584.89,0.0338462,6.86476,0.0336036,-0.00404551,2.86829,0.308127,0.0104289,48,0.030286,3.55577
2,1,Potentiostatic EIS,8.37987,3.55578,-0.00243074,1258.92,0.0339021,4.4054,0.0338019,-0.00260412,2.67129,0.303437,0.0102872,38,0.0301845,3.55578
2,1,Potentiostatic EIS,8.50367,3.5558,-0.00218828,999.999,0.0341284,2.37038,0.0340992,-0.00141152,2.38881,0.297808,0.0101637,30,0.03,3.5558
2,1,Potentiostatic EIS,8.62724,3.55579,-0.00194346,794.328,0.0344389,0.661006,0.0344366,-0.000397303,2.26635,0.292797,0.0100836,24,0.0302142,3.55579
2,1,Potentiostatic EIS,8.74964,3.55578,-0.00214928,630.956,0.0347959,-0.780003,0.0347927,0.000473684,2.16411,0.288497,0.0100385,19,0.030113,3.55578
2,1,Potentiostatic EIS,8.82883,3.55578,-0.00224482,501.187,0.0352112,-1.98173,0.0351901,0.00121763,2.04616,0.243667,0.00857979,15,0.029929,3.55578
2,1,Potentiostatic EIS,8.90863,3.55579,-0.0020949,398.107,0.0356927,-2.98978,0.0356441,0.00186166,1.90071,0.255078,0.00910444,12,0.0301427,3.55579
2,1,Potentiostatic EIS,8.98877,3.55578,-0.0020915,316.228,0.0362421,-3.88068,0.036159,0.00245282,1.69764,0.261082,0.00946217,9,0.0284605,3.55578
2,1,Potentiostatic EIS,9.07013,3.55578,-0.00200719,251.189,0.0368628,-4.63817,0.0367421,0.00298084,1.50128,0.262656,0.00968223,8,0.0318486,3.55578
2,1,Potentiostatic EIS,9.15923,3.55578,-0.00202234,199.526,0.037523,-5.22553,0.0373671,0.00341746,1.28166,0.26141,0.0098089,8,0.0400951,3.55578
2,1,Potentiostatic EIS,9.25804,3.55579,-0.00181756,158.489,0.0382258,-5.77257,0.038032,0.00384475,1.06226,0.25862,0.00988598,8,0.0504766,3.55579
2,1,Potentiostatic EIS,9.37127,3.55579,-0.0016317,125.892,0.0389739,-6.1917,0.0387466,0.00420355,0.913804,0.25464,0.00992433,8,0.0635464,3.55579
2,1,Potentiostatic EIS,9.50039,3.5558,-0.00175869,100,0.0398108,-6.54706,0.0395512,0.0045392,0.749764,0.249809,0.00994512,8,0.08,3.5558
2,1,Potentiostatic EIS,9.65207,3.55579,-0.00172581,79.4327,0.0406635,-6.71464,0.0403846,0.00475456,0.572868,0.244732,0.00995168,8,0.100714,3.55579
2,1,Potentiostatic EIS,9.83173,3.5558,-0.00192713,63.0956,0.0415465,-6.80213,0.0412541,0.0049208,0.470768,0.239604,0.00995469,8,0.126792,3.5558
2,1,Potentiostatic EIS,10.0471,3.55579,-0.00170342,50.1186,0.0424738,-6.81375,0.0421738,0.00503918,0.391203,0.229625,0.00975305,8,0.159621,3.55579
2,1,Potentiostatic EIS,10.3067,3.55578,-0.00238075,39.8107,0.0433455,-6.67612,0.0430516,0.00503921,0.303266,0.225898,0.00979167,8,0.200951,3.55578
2,1,Potentiostatic EIS,10.4492,3.55578,-0.00270783,31.6228,0.04418,-6.51875,0.0438944,0.00501569,0.274898,0.224269,0.00990828,2,0.0632456,3.55578
2,1,Potentiostatic EIS,10.6109,3.55578,-0.00225648,25.1188,0.0450594,-6.16112,0.0447992,0.00483599,0.226207,0.214568,0.00966826,2,0.0796217,3.55578
2,1,Potentiostatic EIS,10.8101,3.55579,-0.00228935,19.9526,0.045859,-5.80499,0.0456238,0.00463831,0.200628,0.213086,0.00977181,2,0.100238,3.55579
2,1,Potentiostatic EIS,11.0571,3.5558,-0.00225807,15.8489,0.0465636,-5.42844,0.0463548,0.00440503,0.204164,0.211188,0.00983364,2,0.126192,3.5558
2,1,Potentiostatic EIS,11.3636,3.55578,-0.00239124,12.5892,0.0472395,-4.94793,0.0470635,0.00407443,0.210838,0.209199,0.00988246,2,0.158866,3.55578
2,1,Potentiostatic EIS,11.7451,3.55578,-0.00226239,9.99998,0.0478177,-4.49677,0.0476705,0.00374904,0.186646,0.207352,0.0099151,2,0.2,3.55578
2,1,Potentiostatic EIS,12.2199,3.55578,-0.00254152,7.94328,0.0483353,-4.06278,0.0482139,0.00342454,0.180029,0.205559,0.00993574,2,0.251785,3.55578
2,1,Potentiostatic EIS,12.8134,3.55579,-0.00231581,6.30957,0.0487617,-3.65526,0.0486625,0.00310871,0.16818,0.203965,0.00994566,2,0.316979,3.55579
2,1,Potentiostatic EIS,13.5533,3.55579,-0.00243391,5.01186,0.0491231,-3.27729,0.0490427,0.00280828,0.194682,0.202622,0.00995342,2,0.399053,3.55579
2,1,Potentiostatic EIS,14.4799,3.55578,-0.00247437,3.98106,0.0494342,-2.96948,0.0493678,0.00256089,0.164327,0.201401,0.00995608,2,0.502378,3.55578
2,1,Potentiostatic EIS,15.6441,3.55579,-0.00252905,3.16227,0.0497082,-2.6692,0.0496543,0.00231488,0.158487,0.200462,0.00996459,2,0.632458,3.55579
2,1,Potentiostatic EIS,17.1067,3.55579,-0.0025309,2.51188,0.0499253,-2.44448,0.0498799,0.00212938,0.156629,0.199649,0.00996755,2,0.796216,3.55579
2,1,Potentiostatic EIS,18.9445,3.55579,-0.00233111,1.99526,0.0501457,-2.25096,0.050107,0.00196955,0.168399,0.198776,0.00996777,2,1.00238,3.55579
2,1,Potentiostatic EIS,21.2538,3.55578,-0.00264548,1.58489,0.0503383,-2.10182,0.0503044,0.00184618,0.157519,0.197978,0.00996586,2,1.26192,3.55578
2,1,Potentiostatic EIS,24.1586,3.55578,-0.00246628,1.25892,0.0505357,-2.00203,0.0505049,0.00176546,0.177455,0.197371,0.00997427,2,1.58866,3.55578
2,1,Potentiostatic EIS,27.8103,3.55579,-0.00228018,0.999998,0.0507069,-1.90537,0.0506788,0.00168595,0.154937,0.196529,0.00996535,2,2,3.55579
2,1,Potentiostatic EIS,32.4052,3.55579,-0.00257519,0.794327,0.0509327,-1.87714,0.0509054,0.00166837,0.191925,0.195763,0.00997074,2,2.51785,3.55579
2,1,Potentiostatic EIS,38.1848,3.5558,-0.00227663,0.630956,0.0510783,-1.87829,0.0510509,0.00167417,0.176639,0.195118,0.00996629,2,3.16979,3.5558
2,1,Potentiostatic EIS,45.4592,3.55579,-0.00236038,0.501186,0.0512138,-1.90272,0.0511855,0.00170043,0.19692,0.194652,0.00996883,2,3.99054,3.55579
2,1,Potentiostatic EIS,52.7486,3.55579,-0.00240839,0.5,0.0512747,-1.88371,0.0512469,0.00168545,0.206604,0.194386,0.00996704,2,4,3.55579