Folder: feature-extraction-paper-2024/P190_02/EIS_06_P190_02_4

Note: README.md
# feature-extraction-paper-2024
Repository for code used and referenced in 2024 feature extraction paper

File: 2_EIS_06_P190_02_4 20230829 113852.csv
Step number,Repeats,Step name,Elapsed Time  (s),DC Working Electrode (V),DC Current (A),Frequency (Hz),|Z| (Ohms),Phase (deg),Z' (Ohms),-Z" (Ohms),THD (%),Amplitude (A),Amplitude (V),No of Cycles,Duration of Each Frequency (s),IR Compensated DC Working Electrode (V)
2,1,Potentiostatic EIS,0,3.55446,-0.010235,1000000,1.1068,83.9341,0.116957,-1.1006,0.832666,0.00907388,0.010043,1430,0.00143,3.55446
2,1,Potentiostatic EIS,0.269808,3.55428,-0.0147243,794328,0.895017,83.5476,0.10058,-0.889347,0.97426,0.0111767,0.0100033,1445,0.00181915,3.55428
2,1,Potentiostatic EIS,0.545994,3.55418,-0.0170071,630957.375,0.719386,82.9892,0.0878056,-0.714007,1.17909,0.0138722,0.00997954,1355,0.00214753,3.55418
2,1,Potentiostatic EIS,0.841257,3.55406,-0.0198903,501187.25,0.580803,82.7124,0.073675,-0.576111,1.39742,0.0171822,0.00997949,1385,0.00276344,3.55406
2,1,Potentiostatic EIS,1.15354,3.55395,-0.0221916,398107,0.467626,81.6165,0.0681792,-0.462629,1.69355,0.0213281,0.00997356,1400,0.00351664,3.55395
2,1,Potentiostatic EIS,1.5212,3.55385,-0.0244903,316228,0.376549,81.0925,0.0583048,-0.372008,1.72841,0.0264452,0.00995792,1370,0.00433232,3.55385
2,1,Potentiostatic EIS,1.91925,3.55371,-0.0277659,251189,0.305486,79.8722,0.053718,-0.300726,2.00901,0.0326961,0.00998823,1340,0.00533464,3.55371
2,1,Potentiostatic EIS,2.36282,3.5536,-0.030273,199526,0.246565,79.0702,0.0467504,-0.242093,2.03466,0.0402372,0.0099211,1355,0.00679109,3.5536
2,1,Potentiostatic EIS,2.8755,3.55342,-0.0341755,158489,0.200236,77.469,0.0434446,-0.195466,2.12802,0.0497738,0.0099665,1360,0.00858102,3.55342
2,1,Potentiostatic EIS,3.94224,3.55394,-0.0207147,125893,0.1634,76.0955,0.0392657,-0.158612,3.20116,0.0610996,0.00998366,1370,0.0108823,3.55394
2,1,Potentiostatic EIS,4.54975,3.55394,-0.0208321,100000,0.132958,74.5787,0.0353554,-0.128171,3.70767,0.0753069,0.0100125,1370,0.0137,3.55394
2,1,Potentiostatic EIS,5.2064,3.55392,-0.0208282,79432.8,0.108826,72.3279,0.0330361,-0.10369,5.78594,0.0921575,0.0100291,1365,0.0171843,3.55392
2,1,Potentiostatic EIS,5.44922,3.55391,-0.0209979,63095.7,0.0890476,70.0994,0.0303109,-0.0837301,4.49981,0.112285,0.00999874,1290,0.0204451,3.55391
2,1,Potentiostatic EIS,5.69212,3.55389,-0.0210251,50118.75,0.0736536,66.9842,0.0287974,-0.0677906,5.10549,0.135807,0.0100034,1025,0.0204514,3.55389
2,1,Potentiostatic EIS,5.93648,3.55391,-0.0205444,39810.7,0.060916,63.7602,0.0269327,-0.0546387,5.45723,0.164309,0.010009,815,0.0204719,3.55391
2,1,Potentiostatic EIS,6.18028,3.55395,-0.0197928,31622.8,0.0512331,59.5412,0.025971,-0.0441627,5.90348,0.195771,0.0100299,645,0.0203967,3.55395
2,1,Potentiostatic EIS,6.42405,3.55425,-0.0118455,25118.9,0.0435071,54.8764,0.0250315,-0.035585,6.08439,0.231348,0.0100653,510,0.0203034,3.55425
2,1,Potentiostatic EIS,6.68139,3.55434,-0.0100426,19952.6,0.0372853,49.594,0.0241683,-0.0283916,6.10139,0.263129,0.00981079,405,0.0202981,3.55434
2,1,Potentiostatic EIS,6.91287,3.5544,-0.00946551,15848.9,0.0325665,44.1666,0.0233605,-0.0226906,5.9753,0.306717,0.00998872,320,0.0201906,3.5544
2,1,Potentiostatic EIS,7.14095,3.55442,-0.0086643,12589.2,0.0293699,38.1546,0.023095,-0.0181443,5.60661,0.342038,0.0100455,255,0.0202554,3.55442
2,1,Potentiostatic EIS,7.44707,3.55447,-0.00632331,9999.98,0.0270673,32.498,0.0228288,-0.0145425,2.43516,0.368255,0.00996767,307,0.0307001,3.55447
2,1,Potentiostatic EIS,7.70276,3.55449,-0.006081,7943.27,0.0253126,27.7228,0.0224069,-0.0117753,2.82213,0.403513,0.0102139,244,0.0307178,3.55449
2,1,Potentiostatic EIS,7.91428,3.55452,-0.00527619,6309.57,0.0232081,22.091,0.0215043,-0.00872807,3.28405,0.386778,0.00897637,193,0.0305885,3.55452
2,1,Potentiostatic EIS,8.12694,3.55456,-0.00486403,5011.87,0.0228613,15.5276,0.0220269,-0.00612003,3.15969,0.458603,0.0104843,153,0.0305276,3.55456
2,1,Potentiostatic EIS,8.33768,3.5546,-0.00353013,3981.07,0.0227715,11.2791,0.0223317,-0.00445384,3.10378,0.450064,0.0102486,122,0.0306451,3.5546
2,1,Potentiostatic EIS,8.50573,3.55462,-0.00303622,3162.27,0.0227758,7.90195,0.0225596,-0.00313118,3.04472,0.385999,0.00879144,97,0.0306742,3.55462
2,1,Potentiostatic EIS,8.67415,3.55461,-0.00316618,2511.88,0.0228492,5.06057,0.0227601,-0.0020155,2.76061,0.458506,0.0104765,77,0.0306543,3.55461
2,1,Potentiostatic EIS,8.84331,3.55464,-0.00304842,1995.26,0.0230142,2.61725,0.0229902,-0.00105091,2.50566,0.446294,0.0102711,61,0.0305725,3.55464
2,1,Potentiostatic EIS,9.01171,3.55465,-0.00254109,1584.89,0.0232503,0.598815,0.023249,-0.000242991,2.46917,0.434165,0.0100944,48,0.030286,3.55465
2,1,Potentiostatic EIS,9.13673,3.55462,-0.00282568,1258.92,0.0235311,-1.09077,0.0235268,0.000447946,2.4496,0.420585,0.00989681,38,0.0301845,3.55462
2,1,Potentiostatic EIS,9.25862,3.55463,-0.00270914,999.999,0.0238844,-2.49977,0.0238617,0.00104173,2.3811,0.429388,0.0102557,30,0.03,3.55463
2,1,Potentiostatic EIS,9.38475,3.55463,-0.00248909,794.328,0.0242902,-3.7176,0.0242391,0.00157495,2.32398,0.417187,0.0101336,24,0.0302142,3.55463
2,1,Potentiostatic EIS,9.511,3.55464,-0.00241707,630.956,0.0247155,-4.7421,0.0246309,0.00204325,2.25074,0.407098,0.0100616,19,0.030113,3.55464
2,1,Potentiostatic EIS,9.63402,3.55467,-0.00145723,501.187,0.0251856,-5.68105,0.0250619,0.00249314,2.16504,0.398559,0.010038,15,0.029929,3.55467
2,1,Potentiostatic EIS,9.71494,3.55467,-0.00165951,398.107,0.0257136,-6.47848,0.0255494,0.00290126,2.09051,0.346689,0.00891462,12,0.0301427,3.55467
2,1,Potentiostatic EIS,9.79373,3.55465,-0.00198817,316.228,0.0262827,-7.16507,0.0260774,0.00327819,1.89415,0.356624,0.00937304,9,0.0284605,3.55465
2,1,Potentiostatic EIS,9.87303,3.55467,-0.00180636,251.189,0.0269163,-7.76715,0.0266694,0.00363767,1.73238,0.35884,0.00965865,8,0.0318486,3.55467
2,1,Potentiostatic EIS,9.96107,3.55466,-0.00196636,199.526,0.0275871,-8.25019,0.0273016,0.00395863,1.53137,0.355875,0.00981756,8,0.0400951,3.55466
2,1,Potentiostatic EIS,10.0607,3.55466,-0.00185597,158.489,0.0282974,-8.64331,0.0279761,0.00425261,1.3138,0.349976,0.00990343,8,0.0504766,3.55466
2,1,Potentiostatic EIS,10.173,3.55466,-0.00181825,125.892,0.0290503,-8.92572,0.0286985,0.00450726,1.1425,0.342211,0.00994133,8,0.0635464,3.55466
2,1,Potentiostatic EIS,10.3026,3.55466,-0.00194385,100,0.0298666,-9.16344,0.0294854,0.00475629,0.904294,0.333399,0.00995748,8,0.08,3.55466
2,1,Potentiostatic EIS,10.4547,3.55467,-0.00144453,79.4327,0.0307147,-9.22316,0.0303176,0.00492295,0.725687,0.324224,0.00995844,8,0.100714,3.55467
2,1,Potentiostatic EIS,10.776,3.55466,-0.002215,63.0956,0.0315971,-9.11812,0.0311979,0.0050072,0.616537,0.316802,0.01001,8,0.126792,3.55466
2,1,Potentiostatic EIS,10.9909,3.55467,-0.00136727,50.1186,0.0324593,-9.02997,0.032057,0.00509452,0.49609,0.301071,0.00977255,8,0.159621,3.55467
2,1,Potentiostatic EIS,11.2493,3.55466,-0.00235357,39.8107,0.0333084,-8.70613,0.0329246,0.00504179,0.392029,0.29406,0.00979469,8,0.200951,3.55466
2,1,Potentiostatic EIS,11.3917,3.55467,-0.00292347,31.6228,0.0341633,-8.39153,0.0337976,0.00498568,0.324427,0.290097,0.00991077,2,0.0632456,3.55467
2,1,Potentiostatic EIS,11.5535,3.55467,-0.00218598,25.1188,0.0349783,-7.8791,0.0346481,0.00479494,0.285833,0.276083,0.00965676,2,0.0796217,3.55467
2,1,Potentiostatic EIS,11.7526,3.55466,-0.0023287,19.9526,0.035757,-7.34748,0.0354634,0.00457284,0.256502,0.273165,0.00976757,2,0.100238,3.55466
2,1,Potentiostatic EIS,11.9996,3.55467,-0.00237593,15.8489,0.0364585,-6.75778,0.0362052,0.00429015,0.241397,0.269565,0.00982784,2,0.126192,3.55467
2,1,Potentiostatic EIS,12.3062,3.55466,-0.00262457,12.5892,0.0370753,-6.18063,0.0368598,0.00399165,0.195982,0.266197,0.00986929,2,0.158866,3.55466
2,1,Potentiostatic EIS,12.6877,3.55466,-0.00294465,9.99998,0.0376408,-5.56301,0.0374636,0.00364892,0.209204,0.26318,0.00990629,2,0.2,3.55466
2,1,Potentiostatic EIS,13.1632,3.55466,-0.00285681,7.94328,0.0381068,-4.99891,0.0379619,0.00332051,0.20967,0.260249,0.00991724,2,0.251785,3.55466
2,1,Potentiostatic EIS,13.7565,3.55466,-0.00257928,6.30957,0.038512,-4.48521,0.0383941,0.00301171,0.199889,0.258178,0.00994295,2,0.316979,3.55466
2,1,Potentiostatic EIS,14.4999,3.55466,-0.00255913,5.01186,0.0388379,-4.01821,0.0387424,0.00272151,0.195585,0.255828,0.0099358,2,0.399053,3.55466
2,1,Potentiostatic EIS,15.4271,3.55466,-0.00277657,3.98106,0.0391481,-3.59444,0.0390711,0.00245434,0.204288,0.254249,0.00995338,2,0.502378,3.55466
2,1,Potentiostatic EIS,16.592,3.55465,-0.00292074,3.16227,0.0394107,-3.257,0.0393471,0.00223911,0.168999,0.252453,0.00994937,2,0.632458,3.55465
2,1,Potentiostatic EIS,18.0546,3.55465,-0.00270558,2.51188,0.0396253,-2.98047,0.0395717,0.00206034,0.164383,0.251234,0.0099552,2,0.796216,3.55465
2,1,Potentiostatic EIS,19.8938,3.55466,-0.00277571,1.99526,0.0398379,-2.75367,0.0397919,0.0019139,0.191288,0.250021,0.00996032,2,1.00238,3.55466
2,1,Potentiostatic EIS,22.2039,3.55466,-0.00284906,1.58489,0.0400382,-2.55872,0.0399983,0.00178744,0.181092,0.248746,0.00995935,2,1.26192,3.55466
2,1,Potentiostatic EIS,25.1082,3.55466,-0.00279241,1.25892,0.0402115,-2.41698,0.0401757,0.00169579,0.191801,0.247564,0.00995491,2,1.58866,3.55466
2,1,Potentiostatic EIS,28.7598,3.55466,-0.00298414,0.999998,0.0403746,-2.31916,0.0403415,0.00163379,0.180762,0.246749,0.00996241,2,2,3.55466
2,1,Potentiostatic EIS,33.3544,3.55466,-0.00301828,0.794327,0.0405313,-2.30237,0.0404986,0.00162827,0.167634,0.245779,0.00996174,2,2.51785,3.55466
2,1,Potentiostatic EIS,39.1334,3.55465,-0.00276559,0.630956,0.0406954,-2.28636,0.040663,0.0016235,0.153678,0.244619,0.00995487,2,3.16979,3.55465
2,1,Potentiostatic EIS,46.4081,3.55465,-0.00303372,0.501186,0.040867,-2.31316,0.0408337,0.00164944,0.14781,0.243708,0.00995962,2,3.99054,3.55465
2,1,Potentiostatic EIS,53.6985,3.55465,-0.00292276,0.5,0.0408514,-2.31331,0.0408181,0.00164892,0.118152,0.243932,0.00996493,2,4,3.55465