Folder: feature-extraction-paper-2024/P190_02/EIS_06_P190_02_5

Note: README.md
# feature-extraction-paper-2024
Repository for code used and referenced in 2024 feature extraction paper

File: 2_EIS_06_P190_02_5 20230829 114326.csv
Step number,Repeats,Step name,Elapsed Time  (s),DC Working Electrode (V),DC Current (A),Frequency (Hz),|Z| (Ohms),Phase (deg),Z' (Ohms),-Z" (Ohms),THD (%),Amplitude (A),Amplitude (V),No of Cycles,Duration of Each Frequency (s),IR Compensated DC Working Electrode (V)
2,1,Potentiostatic EIS,0,3.55564,-0.011242,1000000,3.0682,87.7422,0.120876,-3.06582,1.38209,0.00323364,0.0099217,1430,0.00143,3.55564
2,1,Potentiostatic EIS,0.228585,3.55558,-0.0128022,794328,2.45587,87.5977,0.10294,-2.45371,1.60418,0.00402994,0.00989684,1445,0.00181915,3.55558
2,1,Potentiostatic EIS,0.465015,3.55554,-0.0136665,630957.375,1.95201,86.9776,0.102922,-1.9493,1.54694,0.00495912,0.00968105,1355,0.00214753,3.55554
2,1,Potentiostatic EIS,0.7334,3.55551,-0.0142823,501187.25,1.56061,87.0128,0.0813267,-1.55849,1.6459,0.00638666,0.00996686,1385,0.00276344,3.55551
2,1,Potentiostatic EIS,1.02176,3.55546,-0.0155175,398107,1.24895,86.2025,0.0827185,-1.24621,1.49059,0.00798517,0.00997311,1400,0.00351664,3.55546
2,1,Potentiostatic EIS,1.32133,3.5554,-0.016231,316228,0.993773,85.8036,0.0727203,-0.991109,1.74863,0.010023,0.00996054,1370,0.00433232,3.5554
2,1,Potentiostatic EIS,1.66137,3.55534,-0.017483,251189,0.799265,85.2045,0.0668187,-0.796468,1.5653,0.0123513,0.0098723,1340,0.00533464,3.55534
2,1,Potentiostatic EIS,2.07198,3.55531,-0.0183994,199526,0.637481,84.7944,0.0578391,-0.634852,1.61405,0.0155833,0.00993418,1355,0.00679109,3.55531
2,1,Potentiostatic EIS,2.53651,3.55525,-0.0196132,158489,0.51315,83.7977,0.0554405,-0.510146,2.02619,0.019419,0.00996491,1360,0.00858102,3.55525
2,1,Potentiostatic EIS,3.29174,3.55517,-0.0214714,125893,0.413521,83.2133,0.0488672,-0.410623,1.79451,0.024102,0.00996668,1370,0.0108823,3.55517
2,1,Potentiostatic EIS,3.9086,3.55508,-0.0232814,100000,0.331789,82.2122,0.0449587,-0.328729,1.98749,0.0300724,0.00997763,1370,0.0137,3.55508
2,1,Potentiostatic EIS,4.58259,3.55498,-0.024726,79432.8,0.267643,80.9482,0.0421075,-0.26431,2.73138,0.0374541,0.0100244,1365,0.0171843,3.55498
2,1,Potentiostatic EIS,4.82259,3.5549,-0.0267212,63095.7,0.214908,79.8443,0.0378933,-0.211541,2.17534,0.0463496,0.00996095,1290,0.0204451,3.5549
2,1,Potentiostatic EIS,5.07023,3.55486,-0.0274161,50118.75,0.173418,78.2217,0.035399,-0.169767,2.21559,0.0564144,0.00978557,1025,0.0204514,3.55486
2,1,Potentiostatic EIS,5.42875,3.55533,-0.017057,39810.7,0.140404,76.3283,0.0331857,-0.136426,4.05272,0.0692715,0.00972648,815,0.0204719,3.55533
2,1,Potentiostatic EIS,5.64824,3.55542,-0.0145359,31622.8,0.114398,73.9423,0.0316432,-0.109935,5.42086,0.0879297,0.0100592,645,0.0203967,3.55542
2,1,Potentiostatic EIS,5.86785,3.55571,-0.00647649,25118.9,0.0936151,71.1411,0.0302599,-0.0885896,6.07896,0.107771,0.0100891,510,0.0203034,3.55571
2,1,Potentiostatic EIS,6.0937,3.55576,-0.00573964,19952.6,0.0764159,67.777,0.0289015,-0.0707396,6.59629,0.131874,0.0100771,405,0.0202981,3.55576
2,1,Potentiostatic EIS,6.29959,3.55579,-0.00504996,15848.9,0.0629052,63.9647,0.0276106,-0.0565218,6.8166,0.154148,0.00969618,320,0.0201906,3.55579
2,1,Potentiostatic EIS,6.50762,3.55579,-0.00427824,12589.2,0.0527142,59.2004,0.0269916,-0.0452796,7.11119,0.186201,0.00981576,255,0.0202554,3.55579
2,1,Potentiostatic EIS,6.778,3.55581,-0.00437829,9999.98,0.044938,54.0679,0.0263708,-0.0363869,3.36805,0.223593,0.0100478,307,0.0307001,3.55581
2,1,Potentiostatic EIS,6.99043,3.55581,-0.00442408,7943.27,0.0389937,48.7335,0.0257187,-0.0293096,4.07994,0.272759,0.0106359,244,0.0307178,3.55581
2,1,Potentiostatic EIS,7.20682,3.55583,-0.00429155,6309.57,0.0335847,42.9789,0.0245707,-0.0228956,4.6563,0.312108,0.0104821,193,0.0305885,3.55583
2,1,Potentiostatic EIS,7.4184,3.55587,-0.00334537,5011.87,0.0303955,35.1115,0.0248645,-0.0174825,4.75816,0.339927,0.0103322,153,0.0305276,3.55587
2,1,Potentiostatic EIS,7.63032,3.55589,-0.00298006,3981.07,0.0284813,28.5488,0.0250183,-0.0136114,4.53346,0.357056,0.0101694,122,0.0306451,3.55589
2,1,Potentiostatic EIS,7.8001,3.55589,-0.0025794,3162.27,0.0272363,22.6895,0.0251284,-0.010506,4.24621,0.356995,0.00972321,97,0.0306742,3.55589
2,1,Potentiostatic EIS,7.96723,3.55589,-0.0025264,2511.88,0.0263992,17.4982,0.0251776,-0.00793759,3.87188,0.395213,0.0104333,77,0.0306543,3.55589
2,1,Potentiostatic EIS,8.13632,3.55592,-0.00196472,1995.26,0.025981,12.979,0.0253172,-0.00583517,3.4135,0.393929,0.0102347,61,0.0305725,3.55592
2,1,Potentiostatic EIS,8.2605,3.55592,-0.00210035,1584.89,0.02583,9.13074,0.0255027,-0.0040989,3.14288,0.333025,0.00860202,48,0.030286,3.55592
2,1,Potentiostatic EIS,8.38492,3.55592,-0.00180053,1258.92,0.025837,5.98514,0.0256962,-0.00269404,2.68994,0.386473,0.00998531,38,0.0301845,3.55592
2,1,Potentiostatic EIS,8.50821,3.55593,-0.00150846,999.999,0.0260179,3.2991,0.0259748,-0.00149729,2.51362,0.394862,0.0102735,30,0.03,3.55593
2,1,Potentiostatic EIS,8.6353,3.55594,-0.00116,794.328,0.026296,1.08165,0.0262913,-0.000496397,2.36617,0.386009,0.0101505,24,0.0302142,3.55594
2,1,Potentiostatic EIS,8.76009,3.55596,-0.000992802,630.956,0.0266486,-0.766176,0.0266462,0.000356342,2.19285,0.377997,0.0100731,19,0.030113,3.55596
2,1,Potentiostatic EIS,8.88365,3.55594,-0.000894658,501.187,0.0270567,-2.33475,0.0270343,0.00110223,2.1011,0.37071,0.0100302,15,0.029929,3.55594
2,1,Potentiostatic EIS,8.96249,3.55594,-0.00101852,398.107,0.0275579,-3.67305,0.0275013,0.00176544,2.05111,0.320883,0.00884287,12,0.0301427,3.55594
2,1,Potentiostatic EIS,9.04055,3.55594,-0.0011564,316.228,0.0280746,-4.78818,0.0279766,0.00234345,1.86284,0.331496,0.00930662,9,0.0284605,3.55594
2,1,Potentiostatic EIS,9.12116,3.55594,-0.00122162,251.189,0.0286675,-5.70772,0.0285254,0.00285109,1.68595,0.334827,0.00959866,8,0.0318486,3.55594
2,1,Potentiostatic EIS,9.20998,3.55594,-0.0010523,199.526,0.0293096,-6.46441,0.0291232,0.00329985,1.48882,0.333343,0.00977013,8,0.0400951,3.55594
2,1,Potentiostatic EIS,9.30845,3.55595,-0.000725397,158.489,0.0300251,-7.06799,0.0297969,0.0036945,1.23665,0.32884,0.00987343,8,0.0504766,3.55595
2,1,Potentiostatic EIS,9.42016,3.55595,-0.000763249,125.892,0.0307522,-7.5572,0.0304851,0.0040444,1.10224,0.322537,0.0099187,8,0.0635464,3.55595
2,1,Potentiostatic EIS,9.54892,3.55595,-0.000966222,100,0.0315545,-7.90203,0.0312549,0.00433811,0.849318,0.3151,0.00994283,8,0.08,3.55595
2,1,Potentiostatic EIS,9.69877,3.55596,-0.000995333,79.4327,0.0323873,-8.07756,0.032066,0.00455085,0.723497,0.307216,0.0099499,8,0.100714,3.55596
2,1,Potentiostatic EIS,9.87783,3.55595,-0.00113487,63.0956,0.033244,-8.13902,0.0329092,0.00470654,0.594877,0.29932,0.0099506,8,0.126792,3.55595
2,1,Potentiostatic EIS,10.0926,3.55595,-0.000791928,50.1186,0.0341039,-8.12355,0.0337617,0.00481916,0.487383,0.28686,0.00978303,8,0.159621,3.55595
2,1,Potentiostatic EIS,10.3508,3.55593,-0.00154126,39.8107,0.0349384,-7.91212,0.0346058,0.00480941,0.399273,0.280582,0.00980308,8,0.200951,3.55593
2,1,Potentiostatic EIS,10.4936,3.55595,-0.00133296,31.6228,0.0358264,-7.61841,0.0355102,0.00474968,0.304015,0.276887,0.00991982,2,0.0632456,3.55595
2,1,Potentiostatic EIS,10.6555,3.55596,-0.0013444,25.1188,0.0365848,-7.21062,0.0362954,0.00459202,0.286837,0.264002,0.00965846,2,0.0796217,3.55596
2,1,Potentiostatic EIS,10.855,3.55595,-0.00148288,19.9526,0.0373447,-6.75776,0.0370853,0.00439443,0.257071,0.261328,0.00975917,2,0.100238,3.55595
2,1,Potentiostatic EIS,11.1021,3.55595,-0.00165839,15.8489,0.0380229,-6.25049,0.0377969,0.00413975,0.239103,0.258691,0.00983619,2,0.126192,3.55595
2,1,Potentiostatic EIS,11.4086,3.55595,-0.00143544,12.5892,0.0386367,-5.70561,0.0384453,0.00384115,0.21731,0.255704,0.00987953,2,0.158866,3.55595
2,1,Potentiostatic EIS,11.7899,3.55595,-0.00157419,9.99998,0.0391773,-5.14024,0.0390197,0.00351004,0.211984,0.252952,0.00991,2,0.2,3.55595
2,1,Potentiostatic EIS,12.2649,3.55595,-0.00162106,7.94328,0.0396558,-4.6403,0.0395258,0.00320816,0.215517,0.25033,0.00992704,2,0.251785,3.55595
2,1,Potentiostatic EIS,12.8578,3.55596,-0.00161054,6.30957,0.0400447,-4.14739,0.0399399,0.00289613,0.204627,0.248172,0.00993801,2,0.316979,3.55596
2,1,Potentiostatic EIS,13.6004,3.55596,-0.00167872,5.01186,0.0404125,-3.71974,0.0403273,0.0026218,0.182085,0.246085,0.00994491,2,0.399053,3.55596
2,1,Potentiostatic EIS,14.5273,3.55596,-0.00171977,3.98106,0.0407005,-3.36088,0.0406305,0.00238606,0.182585,0.244414,0.00994777,2,0.502378,3.55596
2,1,Potentiostatic EIS,15.6914,3.55595,-0.00176594,3.16227,0.0409392,-3.03424,0.0408818,0.00216702,0.19024,0.243166,0.00995499,2,0.632458,3.55595
2,1,Potentiostatic EIS,17.1542,3.55595,-0.00200098,2.51188,0.0411563,-2.77345,0.0411081,0.00199142,0.188911,0.242009,0.00996018,2,0.796216,3.55595
2,1,Potentiostatic EIS,18.9936,3.55596,-0.00176404,1.99526,0.0413505,-2.56524,0.0413091,0.00185072,0.185006,0.240871,0.00996012,2,1.00238,3.55596
2,1,Potentiostatic EIS,21.3038,3.55594,-0.00199871,1.58489,0.0415374,-2.40462,0.0415008,0.00174275,0.220429,0.239767,0.00995927,2,1.26192,3.55594
2,1,Potentiostatic EIS,24.2084,3.55595,-0.0021489,1.25892,0.0417117,-2.27503,0.0416788,0.0016558,0.177758,0.238688,0.00995608,2,1.58866,3.55595
2,1,Potentiostatic EIS,27.8602,3.55595,-0.00195181,0.999998,0.0418853,-2.2038,0.0418543,0.00161066,0.176444,0.237706,0.00995639,2,2,3.55595
2,1,Potentiostatic EIS,32.4542,3.55595,-0.00200885,0.794327,0.0420624,-2.17388,0.0420321,0.00159552,0.177729,0.236908,0.00996492,2,2.51785,3.55595
2,1,Potentiostatic EIS,38.2328,3.55595,-0.00224572,0.630956,0.0422236,-2.15589,0.0421937,0.00158839,0.198905,0.236054,0.00996706,2,3.16979,3.55595
2,1,Potentiostatic EIS,45.5075,3.55595,-0.0019096,0.501186,0.0423969,-2.18689,0.0423661,0.00161783,0.18674,0.23507,0.00996627,2,3.99054,3.55595
2,1,Potentiostatic EIS,52.7975,3.55595,-0.001918,0.5,0.0424089,-2.17495,0.0423783,0.00160945,0.162221,0.234935,0.00996331,2,4,3.55595