Folder: feature-extraction-paper-2024/P190_02/EIS_04_P190_02_3

Note: README.md
# feature-extraction-paper-2024
Repository for code used and referenced in 2024 feature extraction paper

File: 2_EIS_04_P190_02_3 20230825 152517.csv
Step number,Repeats,Step name,Elapsed Time  (s),DC Working Electrode (V),DC Current (A),Frequency (Hz),|Z| (Ohms),Phase (deg),Z' (Ohms),-Z" (Ohms),THD (%),Amplitude (A),Amplitude (V),No of Cycles,Duration of Each Frequency (s),IR Compensated DC Working Electrode (V)
2,1,Potentiostatic EIS,0,3.55216,-0.0100933,1000000,2.02662,87.3031,0.0953587,-2.02438,1.00417,0.00495215,0.0100362,1430,0.00143,3.55216
2,1,Potentiostatic EIS,0.246237,3.55208,-0.0118778,794328,1.62722,86.7765,0.0914997,-1.62464,1.15008,0.00614198,0.00999435,1445,0.00181915,3.55208
2,1,Potentiostatic EIS,0.509142,3.55202,-0.0130756,630957.375,1.30062,86.3207,0.0834644,-1.29794,1.05462,0.00766796,0.00997318,1355,0.00214753,3.55202
2,1,Potentiostatic EIS,0.774946,3.55198,-0.0143689,501187.25,1.04029,86.309,0.0669695,-1.03813,1.10751,0.00960225,0.00998915,1385,0.00276344,3.55198
2,1,Potentiostatic EIS,1.06037,3.55191,-0.0158646,398107,0.831797,85.3343,0.0676592,-0.82904,1.32281,0.0117421,0.00976764,1400,0.00351664,3.55191
2,1,Potentiostatic EIS,1.39332,3.55185,-0.0169857,316228,0.663843,84.9059,0.0589439,-0.661221,1.2217,0.0149604,0.00993137,1370,0.00433232,3.55185
2,1,Potentiostatic EIS,1.75701,3.55177,-0.0186252,251189,0.534947,83.986,0.0560469,-0.532003,1.37155,0.0186403,0.00997158,1340,0.00533464,3.55177
2,1,Potentiostatic EIS,2.33688,3.55169,-0.0201427,199526,0.42769,83.654,0.0472736,-0.42507,1.57747,0.0232281,0.00993447,1355,0.00679109,3.55169
2,1,Potentiostatic EIS,2.80383,3.5516,-0.0218598,158489,0.343795,82.4958,0.0448994,-0.34085,1.66015,0.0285268,0.0098075,1360,0.00858102,3.5516
2,1,Potentiostatic EIS,3.38839,3.55152,-0.0234055,125893,0.277645,81.5587,0.0407573,-0.274637,1.73198,0.0359576,0.00998345,1370,0.0108823,3.55152
2,1,Potentiostatic EIS,4.07115,3.55141,-0.0259168,100000,0.223076,80.3082,0.0375545,-0.219892,1.89545,0.0446749,0.0099659,1370,0.0137,3.55141
2,1,Potentiostatic EIS,4.81188,3.55126,-0.0289502,79432.8,0.180277,78.851,0.0348585,-0.176875,2.59155,0.0555136,0.0100078,1365,0.0171843,3.55126
2,1,Potentiostatic EIS,5.19932,3.55182,-0.0157196,63095.7,0.145043,77.24,0.0320353,-0.141461,3.82841,0.0687237,0.0099679,1290,0.0204451,3.55182
2,1,Potentiostatic EIS,5.41807,3.55181,-0.0158397,50118.75,0.117475,75.0885,0.0302297,-0.113519,4.53424,0.0852307,0.0100127,1025,0.0204514,3.55181
2,1,Potentiostatic EIS,5.64314,3.5518,-0.0156825,39810.7,0.0957497,72.4174,0.028924,-0.0912765,5.27017,0.104794,0.0100338,815,0.0204719,3.5518
2,1,Potentiostatic EIS,5.8655,3.55179,-0.0158093,31622.8,0.0785522,69.1731,0.0279289,-0.0734195,6.12837,0.128566,0.010099,645,0.0203967,3.55179
2,1,Potentiostatic EIS,6.086,3.55213,-0.0077672,25118.9,0.0647949,65.5278,0.0268414,-0.0589739,6.34756,0.156383,0.0101327,510,0.0203034,3.55213
2,1,Potentiostatic EIS,6.30767,3.55218,-0.00702856,19952.6,0.0537903,61.0136,0.0260668,-0.0470522,6.7704,0.18824,0.0101257,405,0.0202981,3.55218
2,1,Potentiostatic EIS,6.53059,3.55223,-0.00589535,15848.9,0.0451445,56.0115,0.025237,-0.0374315,7.05632,0.222413,0.0100412,320,0.0201906,3.55223
2,1,Potentiostatic EIS,6.7589,3.55227,-0.005057,12589.2,0.038924,50.2034,0.0249138,-0.0299062,6.76689,0.257666,0.0100294,255,0.0202554,3.55227
2,1,Potentiostatic EIS,7.06356,3.55226,-0.00483749,9999.98,0.0342781,44.2935,0.0245353,-0.0239376,3.0156,0.291332,0.00998631,307,0.0307001,3.55226
2,1,Potentiostatic EIS,7.27482,3.5523,-0.00385382,7943.27,0.0308489,38.6267,0.0241001,-0.0192572,3.61536,0.287778,0.00887763,244,0.0307178,3.5523
2,1,Potentiostatic EIS,7.48646,3.55231,-0.00402912,6309.57,0.0273981,32.3328,0.0231501,-0.0146535,3.944,0.372436,0.010204,193,0.0305885,3.55231
2,1,Potentiostatic EIS,7.69828,3.55234,-0.00332603,5011.87,0.0260253,24.6198,0.0236594,-0.010842,3.89484,0.400391,0.0104203,153,0.0305276,3.55234
2,1,Potentiostatic EIS,7.90983,3.55235,-0.00282462,3981.07,0.025348,18.9357,0.0239762,-0.00822557,3.72805,0.403043,0.0102163,122,0.0306451,3.55235
2,1,Potentiostatic EIS,8.07873,3.55238,-0.00229336,3162.27,0.0249465,14.1948,0.0241848,-0.00611739,3.5113,0.371037,0.00925607,97,0.0306742,3.55238
2,1,Potentiostatic EIS,8.24666,3.55238,-0.00231215,2511.88,0.0247591,10.2171,0.0243665,-0.00439175,3.12851,0.421793,0.0104432,77,0.0306543,3.55238
2,1,Potentiostatic EIS,8.4143,3.55241,-0.00170543,1995.26,0.0247552,6.84869,0.0245786,-0.002952,2.90024,0.413441,0.0102348,61,0.0305725,3.55241
2,1,Potentiostatic EIS,8.53874,3.5524,-0.00173167,1584.89,0.0248849,4.02199,0.0248237,-0.00174541,2.67628,0.346268,0.00861687,48,0.030286,3.5524
2,1,Potentiostatic EIS,8.6643,3.5524,-0.00174493,1258.92,0.0251294,1.70723,0.0251182,-0.000748666,2.5139,0.401371,0.0100862,38,0.0301845,3.5524
2,1,Potentiostatic EIS,8.79054,3.55238,-0.00217091,999.999,0.0254595,-0.213739,0.0254594,9.49752e-05,2.35925,0.402681,0.0102521,30,0.03,3.55238
2,1,Potentiostatic EIS,8.91471,3.55241,-0.0014687,794.328,0.0258154,-1.83707,0.0258021,0.000827574,2.2746,0.392267,0.0101265,24,0.0302142,3.55241
2,1,Potentiostatic EIS,9.03889,3.55241,-0.00160795,630.956,0.0262478,-3.16471,0.0262078,0.00144905,2.2138,0.383317,0.0100612,19,0.030113,3.55241
2,1,Potentiostatic EIS,9.1639,3.55241,-0.00115818,501.187,0.0267079,-4.31482,0.0266322,0.00200941,2.12619,0.375966,0.0100413,15,0.029929,3.55241
2,1,Potentiostatic EIS,9.24447,3.55241,-0.00117951,398.107,0.0272538,-5.31857,0.0271364,0.00252624,2.00979,0.32742,0.00892344,12,0.0301427,3.55241
2,1,Potentiostatic EIS,9.32398,3.55242,-0.000745163,316.228,0.027767,-6.22993,0.027603,0.00301324,1.86446,0.337173,0.00936228,9,0.0284605,3.55242
2,1,Potentiostatic EIS,9.4047,3.55243,-0.000859312,251.189,0.0284038,-7.02489,0.0281906,0.0034738,1.68864,0.339311,0.00963773,8,0.0318486,3.55243
2,1,Potentiostatic EIS,9.4951,3.55243,-0.000774836,199.526,0.0290958,-7.60264,0.02884,0.00384944,1.5173,0.33687,0.0098015,8,0.0400951,3.55243
2,1,Potentiostatic EIS,9.59527,3.55243,-0.000776704,158.489,0.0298387,-8.09922,0.0295411,0.00420391,1.27382,0.331576,0.0098938,8,0.0504766,3.55243
2,1,Potentiostatic EIS,9.70831,3.55244,-0.000654908,125.892,0.0306222,-8.51301,0.0302849,0.00453313,1.09883,0.324474,0.00993613,8,0.0635464,3.55244
2,1,Potentiostatic EIS,9.83887,3.55243,-0.000743833,100,0.0314721,-8.81774,0.0311001,0.00482441,0.879248,0.31625,0.00995305,8,0.08,3.55243
2,1,Potentiostatic EIS,9.99142,3.55243,-0.000769776,79.4327,0.0323547,-8.96236,0.0319597,0.0050404,0.719306,0.307727,0.00995641,8,0.100714,3.55243
2,1,Potentiostatic EIS,10.1706,3.55244,-0.00097621,63.0956,0.0332763,-8.95283,0.0328709,0.0051785,0.58952,0.299103,0.00995304,8,0.126792,3.55244
2,1,Potentiostatic EIS,10.3855,3.55245,-0.000276651,50.1186,0.0341874,-8.8719,0.0337783,0.00527257,0.492156,0.285387,0.00975664,8,0.159621,3.55245
2,1,Potentiostatic EIS,10.6429,3.55243,-0.0011022,39.8107,0.0351092,-8.60659,0.0347138,0.00525405,0.367736,0.278764,0.00978715,8,0.200951,3.55243
2,1,Potentiostatic EIS,10.7874,3.55243,-0.00142585,31.6228,0.0360465,-8.20815,0.0356772,0.00514635,0.712592,0.274813,0.00990596,2,0.0632456,3.55243
2,1,Potentiostatic EIS,10.9491,3.55244,-0.00148064,25.1188,0.0368728,-7.77976,0.0365335,0.00499131,0.734169,0.261843,0.00965508,2,0.0796217,3.55244
2,1,Potentiostatic EIS,11.1485,3.55245,-0.00137997,19.9526,0.0376884,-7.24729,0.0373873,0.00475446,0.704808,0.258833,0.00975504,2,0.100238,3.55245
2,1,Potentiostatic EIS,11.3955,3.55244,-0.00117949,15.8489,0.0384223,-6.64179,0.0381645,0.00444399,0.709282,0.255784,0.00982782,2,0.126192,3.55244
2,1,Potentiostatic EIS,11.7023,3.55244,-0.0012169,12.5892,0.0390564,-6.06962,0.0388375,0.0041297,0.493987,0.25276,0.00987192,2,0.158866,3.55244
2,1,Potentiostatic EIS,12.0836,3.55242,-0.00162981,9.99998,0.0396307,-5.48636,0.0394491,0.00378904,0.199622,0.249902,0.00990381,2,0.2,3.55242
2,1,Potentiostatic EIS,12.5586,3.55244,-0.00131144,7.94328,0.0401006,-4.92397,0.0399526,0.00344198,0.206098,0.247445,0.00992269,2,0.251785,3.55244
2,1,Potentiostatic EIS,13.1522,3.55243,-0.00162181,6.30957,0.04051,-4.38164,0.0403916,0.00309495,0.203077,0.245183,0.00993234,2,0.316979,3.55243
2,1,Potentiostatic EIS,13.8946,3.55244,-0.00158061,5.01186,0.0408604,-3.92325,0.0407646,0.00279568,0.193199,0.243225,0.00993823,2,0.399053,3.55244
2,1,Potentiostatic EIS,14.8221,3.55243,-0.00162945,3.98106,0.0411613,-3.50158,0.0410845,0.00251397,0.165078,0.241588,0.00994408,2,0.502378,3.55243
2,1,Potentiostatic EIS,15.9872,3.55243,-0.00172128,3.16227,0.0414262,-3.18802,0.0413621,0.00230383,0.193323,0.240124,0.0099474,2,0.632458,3.55243
2,1,Potentiostatic EIS,17.4501,3.55244,-0.00165878,2.51188,0.0416533,-2.88817,0.0416004,0.00209878,0.183947,0.239076,0.0099583,2,0.796216,3.55244
2,1,Potentiostatic EIS,19.2891,3.55243,-0.00168615,1.99526,0.0418333,-2.65751,0.0417884,0.00193963,0.172249,0.238056,0.00995867,2,1.00238,3.55243
2,1,Potentiostatic EIS,21.5983,3.55244,-0.00157631,1.58489,0.042046,-2.47814,0.0420067,0.00181799,0.191186,0.236935,0.00996217,2,1.26192,3.55244
2,1,Potentiostatic EIS,24.5029,3.55243,-0.00186707,1.25892,0.0421884,-2.34292,0.0421531,0.00172467,0.187029,0.236,0.00995643,2,1.58866,3.55243
2,1,Potentiostatic EIS,28.1541,3.55244,-0.00158259,0.999998,0.0423304,-2.25443,0.0422976,0.00166516,0.179741,0.235343,0.00996217,2,2,3.55244
2,1,Potentiostatic EIS,32.7486,3.55244,-0.00169025,0.794327,0.0424916,-2.19929,0.0424603,0.00163064,0.182073,0.234335,0.0099573,2,2.51785,3.55244
2,1,Potentiostatic EIS,38.528,3.55244,-0.00187986,0.630956,0.0426375,-2.19042,0.0426064,0.00162964,0.209692,0.233436,0.0099531,2,3.16979,3.55244
2,1,Potentiostatic EIS,45.8021,3.55243,-0.00156084,0.501186,0.042806,-2.22871,0.0427736,0.00166466,0.244534,0.23265,0.0099588,2,3.99054,3.55243
2,1,Potentiostatic EIS,53.0917,3.55244,-0.00149195,0.5,0.0428018,-2.24762,0.0427688,0.00167861,0.236639,0.232922,0.00996948,2,4,3.55244