Folder: feature-extraction-paper-2024/Data/P190/P190_03/EIS_04_P190_03_3

Note: README.md
# feature-extraction-paper-2024
Repository for code used and referenced in 2024 feature extraction paper

File: 2_EIS_04_P190_03_3 20230912 112648.csv
Step number,Repeats,Step name,Elapsed Time  (s),DC Working Electrode (V),DC Current (A),Frequency (Hz),|Z| (Ohms),Phase (deg),Z' (Ohms),-Z" (Ohms),THD (%),Amplitude (A),Amplitude (V),No of Cycles,Duration of Each Frequency (s),IR Compensated DC Working Electrode (V)
2,1,Potentiostatic EIS,0,3.51123,-0.0147512,1000000,2.50463,88.0183,0.0866104,-2.50313,1.12355,0.00398053,0.00996968,1430,0.00143,3.51123
2,1,Potentiostatic EIS,0.505294,3.51112,-0.0171398,630957.375,1.60014,87.2322,0.0772688,-1.59827,1.19138,0.00621939,0.0099519,1355,0.00214753,3.51112
2,1,Potentiostatic EIS,1.06412,3.51102,-0.0197252,398107,1.02006,86.3504,0.0649314,-1.01799,1.24492,0.00975609,0.00995181,1400,0.00351664,3.51102
2,1,Potentiostatic EIS,1.76952,3.5109,-0.0225575,251189,0.65144,85.0768,0.0559064,-0.649037,1.57428,0.0153214,0.00998099,1340,0.00533464,3.5109
2,1,Potentiostatic EIS,2.7979,3.51074,-0.0262049,158489,0.417995,83.8346,0.0448923,-0.415577,1.63182,0.0237982,0.00994755,1360,0.00858102,3.51074
2,1,Potentiostatic EIS,4.00023,3.51051,-0.0318058,100000,0.268999,81.9669,0.0375913,-0.266359,2.01206,0.0370872,0.00997641,1370,0.0137,3.51051
2,1,Potentiostatic EIS,5.02896,3.51035,-0.0358652,63095.7,0.174071,79.2727,0.0324005,-0.171029,2.07001,0.0572795,0.0099707,1290,0.0204451,3.51035
2,1,Potentiostatic EIS,5.62965,3.51095,-0.0188358,39810.7,0.113355,75.0743,0.0291965,-0.109531,5.12623,0.0883956,0.0100204,815,0.0204719,3.51095
2,1,Potentiostatic EIS,6.07165,3.51128,-0.00949308,25118.9,0.0756803,68.5823,0.0276358,-0.070454,6.47043,0.133653,0.0101148,510,0.0203034,3.51128
2,1,Potentiostatic EIS,6.51793,3.51132,-0.00780321,15848.9,0.0516481,59.791,0.0259871,-0.044634,7.09886,0.194378,0.0100391,320,0.0201906,3.51132
2,1,Potentiostatic EIS,7.04428,3.51156,-0.00667604,9999.98,0.0381809,48.3789,0.0253598,-0.0285422,3.18206,0.261645,0.00998982,307,0.0307001,3.51156
2,1,Potentiostatic EIS,7.47034,3.51161,-0.00556584,6309.57,0.0296932,36.1602,0.0239734,-0.0175203,4.21023,0.355242,0.0105483,193,0.0305885,3.51161
2,1,Potentiostatic EIS,7.89383,3.51165,-0.00436629,3981.07,0.0267895,22.5299,0.0247449,-0.0102648,4.00801,0.380784,0.010201,122,0.0306451,3.51165
2,1,Potentiostatic EIS,8.23059,3.51169,-0.00355045,2511.88,0.0257087,13.0736,0.0250423,-0.00581535,3.30788,0.405409,0.0104225,77,0.0306543,3.51169
2,1,Potentiostatic EIS,8.52148,3.51172,-0.00231983,1584.89,0.0256003,6.27979,0.0254467,-0.00280026,2.77422,0.339215,0.008684,48,0.030286,3.51172
2,1,Potentiostatic EIS,8.76728,3.51173,-0.0023188,999.999,0.0259814,1.63807,0.0259707,-0.000742699,2.47072,0.394407,0.0102472,30,0.03,3.51173
2,1,Potentiostatic EIS,9.0142,3.51174,-0.00231433,630.956,0.0266985,-1.4595,0.0266898,0.000680016,2.19736,0.376904,0.0100628,19,0.030113,3.51174
2,1,Potentiostatic EIS,9.21668,3.51175,-0.00172362,398.107,0.0276095,-3.47063,0.0275589,0.0016714,2.03841,0.31977,0.00882869,12,0.0301427,3.51175
2,1,Potentiostatic EIS,9.37648,3.51176,-0.00153459,251.189,0.0286268,-4.62351,0.0285336,0.00230755,1.66789,0.333556,0.00954862,8,0.0318486,3.51176
2,1,Potentiostatic EIS,9.56338,3.51176,-0.00138751,158.489,0.0296688,-5.05185,0.0295535,0.00261255,1.23477,0.330572,0.00980765,8,0.0504766,3.51176
2,1,Potentiostatic EIS,9.80389,3.51176,-0.00155352,100,0.0307055,-5.12808,0.0305826,0.00274453,0.871725,0.321956,0.00988581,8,0.08,3.51176
2,1,Potentiostatic EIS,10.134,3.51175,-0.00173683,63.0956,0.0316882,-4.83983,0.0315752,0.00267355,0.598565,0.312576,0.00990497,8,0.126792,3.51175
2,1,Potentiostatic EIS,10.6056,3.51175,-0.00176277,39.8107,0.0325342,-4.3262,0.0324415,0.00245421,0.37765,0.298749,0.00971956,8,0.200951,3.51175
2,1,Potentiostatic EIS,10.9125,3.51176,-0.00227799,25.1188,0.0332733,-3.68697,0.0332045,0.00213965,0.281586,0.289413,0.00962955,2,0.0796217,3.51176
2,1,Potentiostatic EIS,11.3599,3.51177,-0.00184494,15.8489,0.0338399,-3.0639,0.0337915,0.00180873,0.232361,0.289844,0.00980827,2,0.126192,3.51177
2,1,Potentiostatic EIS,12.0485,3.51177,-0.00249576,9.99998,0.0341248,-2.52832,0.0340916,0.00150535,1.28546,0.289551,0.00988097,2,0.2,3.51177
2,1,Potentiostatic EIS,13.1199,3.51176,-0.00265201,6.30957,0.0345044,-2.06168,0.0344821,0.00124131,0.254409,0.287389,0.00991621,2,0.316979,3.51176
2,1,Potentiostatic EIS,14.795,3.51176,-0.00243162,3.98106,0.0347423,-1.7631,0.0347259,0.00106892,0.235921,0.28577,0.00992828,2,0.502378,3.51176
2,1,Potentiostatic EIS,17.4243,3.51177,-0.00244345,2.51188,0.034961,-1.61743,0.0349471,0.000986799,0.22706,0.284135,0.00993364,2,0.796216,3.51177
2,1,Potentiostatic EIS,21.5726,3.51176,-0.00285581,1.58489,0.0351488,-1.57392,0.0351356,0.000965421,0.217152,0.282802,0.00994015,2,1.26192,3.51176
2,1,Potentiostatic EIS,28.1283,3.51176,-0.00235812,0.999998,0.0353154,-1.62452,0.0353012,0.00100117,0.225002,0.281453,0.00993956,2,2,3.51176
2,1,Potentiostatic EIS,38.5016,3.51176,-0.00220302,0.630956,0.0355125,-1.83464,0.0354943,0.00113693,0.193947,0.279808,0.00993665,2,3.16979,3.51176
2,1,Potentiostatic EIS,54.9298,3.51175,-0.00234097,0.398106,0.0357437,-2.13704,0.0357188,0.00133287,0.239732,0.27808,0.00993962,2,5.02379,3.51175
2,1,Potentiostatic EIS,80.9403,3.51176,-0.00175054,0.251188,0.0358895,-2.62805,0.0358518,0.00164561,0.230871,0.277114,0.00994544,2,7.96216,3.51176
2,1,Potentiostatic EIS,122.156,3.51175,-0.000779232,0.158489,0.0363919,-3.25713,0.0363331,0.00206768,0.220934,0.273123,0.00993943,2,12.6192,3.51175
2,1,Potentiostatic EIS,187.462,3.51176,-0.000864141,0.0999997,0.0366588,-4.17401,0.0365616,0.00266824,0.214811,0.27119,0.00994139,2,20.0001,3.51176