Folder: feature-extraction-paper-2024/Data/P190/P190_03/EIS_04_P190_03_2

Note: README.md
# feature-extraction-paper-2024
Repository for code used and referenced in 2024 feature extraction paper

File: 2_EIS_04_P190_03_2 20230912 111458.csv
Step number,Repeats,Step name,Elapsed Time  (s),DC Working Electrode (V),DC Current (A),Frequency (Hz),|Z| (Ohms),Phase (deg),Z' (Ohms),-Z" (Ohms),THD (%),Amplitude (A),Amplitude (V),No of Cycles,Duration of Each Frequency (s),IR Compensated DC Working Electrode (V)
2,1,Potentiostatic EIS,0,3.51464,-0.011976,1000000,1.99951,87.3897,0.0910638,-1.99744,0.727794,0.00504154,0.0100806,1430,0.00143,3.51464
2,1,Potentiostatic EIS,0.513735,3.5145,-0.0160243,630957.375,1.27949,86.4902,0.0783293,-1.27709,0.89364,0.00780464,0.00998594,1355,0.00214753,3.5145
2,1,Potentiostatic EIS,1.06362,3.51436,-0.0196934,398107,0.820451,85.5862,0.0631417,-0.818018,1.15053,0.0118795,0.00974711,1400,0.00351664,3.51436
2,1,Potentiostatic EIS,1.76381,3.51421,-0.0237123,251189,0.526554,84.3851,0.0515184,-0.524027,1.33019,0.0189522,0.00997937,1340,0.00533464,3.51421
2,1,Potentiostatic EIS,2.65429,3.51403,-0.0288116,158489,0.33853,83.0007,0.0412526,-0.336007,1.58546,0.0288987,0.00978324,1360,0.00858102,3.51403
2,1,Potentiostatic EIS,3.91622,3.51379,-0.0351473,100000,0.219133,81.1399,0.0337513,-0.216518,1.86924,0.0454992,0.00997039,1370,0.0137,3.51379
2,1,Potentiostatic EIS,5.33778,3.51428,-0.0181345,63095.7,0.14209,78.4076,0.0285526,-0.139191,4.04385,0.0700322,0.00995085,1290,0.0204451,3.51428
2,1,Potentiostatic EIS,5.78425,3.51427,-0.0184677,39810.7,0.093133,74.0025,0.025667,-0.0895263,5.34592,0.107799,0.0100396,815,0.0204719,3.51427
2,1,Potentiostatic EIS,6.2324,3.51462,-0.00829693,25118.9,0.0624463,67.3402,0.0240579,-0.057626,6.65542,0.162403,0.0101415,510,0.0203034,3.51462
2,1,Potentiostatic EIS,6.67291,3.5147,-0.00596205,15848.9,0.0428456,58.2585,0.0225405,-0.0364372,7.14289,0.234627,0.0100528,320,0.0201906,3.5147
2,1,Potentiostatic EIS,7.26388,3.51494,-0.00385317,9999.98,0.032054,46.7035,0.0219818,-0.0233294,3.07054,0.312066,0.010003,307,0.0307001,3.51494
2,1,Potentiostatic EIS,7.72993,3.515,-0.00266926,6309.57,0.0250743,34.3762,0.020695,-0.0141576,4.12265,0.37301,0.00935296,193,0.0305885,3.515
2,1,Potentiostatic EIS,8.15236,3.51503,-0.00198533,3981.07,0.0229887,20.5758,0.0215222,-0.00807926,3.80606,0.447969,0.0102982,122,0.0306451,3.51503
2,1,Potentiostatic EIS,8.53178,3.51508,-0.00028903,2511.88,0.0223179,11.3527,0.0218812,-0.00439324,3.15845,0.471582,0.0105247,77,0.0306543,3.51508
2,1,Potentiostatic EIS,8.86777,3.51511,0.000310378,1584.89,0.0223798,4.68843,0.0223049,-0.00182926,2.64822,0.453055,0.0101393,48,0.030286,3.51511
2,1,Potentiostatic EIS,9.11702,3.51511,0.000247336,999.999,0.0228857,0.197339,0.0228856,-7.88232e-05,2.29786,0.449702,0.0102918,30,0.03,3.51511
2,1,Potentiostatic EIS,9.3646,3.51515,0.00131276,630.956,0.0236586,-2.84614,0.0236295,0.00117475,2.18294,0.426682,0.0100947,19,0.030113,3.51515
2,1,Potentiostatic EIS,9.56812,3.51515,0.00136493,398.107,0.0246223,-4.7,0.0245395,0.00201751,2.04919,0.354311,0.00872394,12,0.0301427,3.51515
2,1,Potentiostatic EIS,9.72691,3.51514,0.00118122,251.189,0.0256975,-5.79254,0.0255662,0.00259356,1.72546,0.3706,0.00952347,8,0.0318486,3.51514
2,1,Potentiostatic EIS,9.91702,3.51514,0.00100169,158.489,0.0268315,-6.14936,0.0266771,0.00287421,1.33045,0.365789,0.00981465,8,0.0504766,3.51514
2,1,Potentiostatic EIS,10.1627,3.51514,0.00130272,100,0.0279126,-6.06389,0.0277564,0.00294861,0.944794,0.354373,0.00989146,8,0.08,3.51514
2,1,Potentiostatic EIS,10.4916,3.51515,0.00141084,63.0956,0.0289217,-5.60042,0.0287836,0.00282247,0.63062,0.342431,0.00990368,8,0.126792,3.51515
2,1,Potentiostatic EIS,10.9644,3.51513,0.000665217,39.8107,0.0298188,-4.96568,0.0297069,0.00258109,0.413545,0.326181,0.00972634,8,0.200951,3.51513
2,1,Potentiostatic EIS,11.269,3.51513,0.000761623,25.1188,0.0305597,-4.21326,0.0304771,0.00224519,0.277705,0.315354,0.00963714,2,0.0796217,3.51513
2,1,Potentiostatic EIS,11.7158,3.51513,0.000949374,15.8489,0.0311578,-3.46083,0.0311009,0.00188088,0.257183,0.314961,0.00981344,2,0.126192,3.51513
2,1,Potentiostatic EIS,12.4043,3.51513,0.000491026,9.99998,0.0315732,-2.81333,0.0315351,0.00154968,0.226292,0.312998,0.00988236,2,0.2,3.51513
2,1,Potentiostatic EIS,13.4747,3.51514,0.000432809,6.30957,0.0319048,-2.28362,0.0318795,0.00127128,0.186333,0.310732,0.00991385,2,0.316979,3.51514
2,1,Potentiostatic EIS,15.148,3.51514,0.000539667,3.98106,0.032147,-1.92461,0.0321289,0.00107964,0.225663,0.308965,0.00993228,2,0.502378,3.51514
2,1,Potentiostatic EIS,17.7765,3.51515,7.01601e-05,2.51188,0.0323718,-1.76226,0.0323564,0.000995511,0.202279,0.307105,0.00994153,2,0.796216,3.51515
2,1,Potentiostatic EIS,21.9252,3.51514,-0.000280216,1.58489,0.0325733,-1.72873,0.0325585,0.000982656,0.191407,0.305375,0.00994705,2,1.26192,3.51514
2,1,Potentiostatic EIS,28.4817,3.51514,-8.09204e-05,0.999998,0.0327399,-1.80055,0.0327237,0.0010287,0.186176,0.303808,0.00994662,2,2,3.51514
2,1,Potentiostatic EIS,38.8553,3.51514,-0.000360097,0.630956,0.0330165,-2.00743,0.0329963,0.00115654,0.17923,0.301433,0.00995226,2,3.16979,3.51514
2,1,Potentiostatic EIS,55.2838,3.51514,-0.000786369,0.398106,0.0332085,-2.33861,0.0331809,0.00135508,0.186356,0.299485,0.00994546,2,5.02379,3.51514
2,1,Potentiostatic EIS,81.2949,3.51513,-4.89761e-05,0.251188,0.0334714,-2.88902,0.0334289,0.00168701,0.191162,0.297255,0.00994954,2,7.96216,3.51513
2,1,Potentiostatic EIS,122.51,3.51514,0.000540098,0.158489,0.0338455,-3.5808,0.0337794,0.00211385,0.170529,0.294056,0.00995243,2,12.6192,3.51514
2,1,Potentiostatic EIS,187.815,3.51513,-0.000412699,0.0999997,0.0342245,-4.53151,0.0341176,0.00270399,0.199446,0.290526,0.00994313,2,20.0001,3.51513