Folder: feature-extraction-paper-2024/Data/P190/P190_03/EIS_08_P190_03_3

Note: README.md
# feature-extraction-paper-2024
Repository for code used and referenced in 2024 feature extraction paper

File: 2_EIS_08_P190_03_3 20231004 152042.csv
Step number,Repeats,Step name,Elapsed Time  (s),DC Working Electrode (V),DC Current (A),Frequency (Hz),|Z| (Ohms),Phase (deg),Z' (Ohms),-Z" (Ohms),THD (%),Amplitude (A),Amplitude (V),No of Cycles,Duration of Each Frequency (s),IR Compensated DC Working Electrode (V)
2,1,Potentiostatic EIS,60.2992,3.53131,-0.0137012,1000000,1.76835,86.8003,0.0987031,-1.76559,0.755604,0.00567791,0.0100405,1430,0.00143,3.53131
2,1,Potentiostatic EIS,61.0461,3.53118,-0.017076,707946,1.27447,86.4956,0.0779026,-1.27208,0.771407,0.00783908,0.00999063,1340,0.0018928,3.53118
2,1,Potentiostatic EIS,61.8405,3.53107,-0.0198646,501187,0.913996,85.9015,0.0653239,-0.911659,1.06649,0.0107638,0.00983796,1385,0.00276344,3.53107
2,1,Potentiostatic EIS,62.74,3.53096,-0.0224791,354813,0.653454,84.7334,0.059981,-0.650695,1.30143,0.015207,0.00993704,1365,0.00384709,3.53096
2,1,Potentiostatic EIS,63.9077,3.53083,-0.0252636,251189,0.47143,83.4513,0.0537651,-0.468354,1.41021,0.0211625,0.00997665,1340,0.00533464,3.53083
2,1,Potentiostatic EIS,65.1742,3.53065,-0.0298983,177828,0.339861,82.4178,0.044844,-0.336889,1.64011,0.0287371,0.00976617,1355,0.00761973,3.53065
2,1,Potentiostatic EIS,66.7976,3.53046,-0.0345797,125892,0.246105,80.7162,0.0397027,-0.242881,1.90732,0.0406063,0.00999342,1370,0.0108823,3.53046
2,1,Potentiostatic EIS,69.0014,3.5303,-0.0376485,89125.1,0.178092,78.7705,0.0346815,-0.174683,1.90646,0.0560463,0.0099814,1365,0.0153156,3.5303
2,1,Potentiostatic EIS,70.9667,3.5309,-0.0196004,63095.7,0.129126,76.1854,0.0308327,-0.12539,4.22759,0.0777209,0.0100358,1290,0.0204451,3.5309
2,1,Potentiostatic EIS,71.6281,3.53091,-0.0193963,44668.3,0.094306,71.8968,0.0293036,-0.0896377,5.13846,0.106312,0.0100256,910,0.0203724,3.53091
2,1,Potentiostatic EIS,72.2943,3.5309,-0.0193809,31622.8,0.0701985,67.1966,0.0272068,-0.0647118,6.04573,0.144249,0.0101259,645,0.0203967,3.5309
2,1,Potentiostatic EIS,72.9653,3.53126,-0.00896685,22387.2,0.0526916,60.8504,0.0256656,-0.0460182,6.52367,0.190763,0.0100516,455,0.0203241,3.53126
2,1,Potentiostatic EIS,73.6291,3.53134,-0.00691685,15848.9,0.0412351,52.6892,0.0249942,-0.0327967,6.69297,0.243442,0.0100384,320,0.0201906,3.53134
2,1,Potentiostatic EIS,74.3223,3.5314,-0.00581103,11220.2,0.0339617,43.3106,0.0247121,-0.0232961,6.16511,0.295498,0.0100355,225,0.0200532,3.5314
2,1,Potentiostatic EIS,75.1419,3.5315,-0.00371535,7943.27,0.0293592,35.4329,0.0239217,-0.017021,3.36129,0.292215,0.00857921,244,0.0307178,3.5315
2,1,Potentiostatic EIS,75.7769,3.53152,-0.0034554,5623.41,0.0259056,24.6899,0.0235374,-0.0108209,3.60957,0.406599,0.0105332,172,0.0305864,3.53152
2,1,Potentiostatic EIS,76.4103,3.53155,-0.00255511,3981.07,0.0251062,16.6725,0.0240507,-0.00720297,3.40555,0.406462,0.0102047,122,0.0306451,3.53155
2,1,Potentiostatic EIS,76.957,3.53159,-0.00147522,2818.38,0.0247586,10.7058,0.0243276,-0.00459932,3.08901,0.422488,0.0104602,86,0.030514,3.53159
2,1,Potentiostatic EIS,77.4601,3.5316,-0.00144187,1995.26,0.0247336,6.14931,0.0245913,-0.00264946,2.55259,0.413361,0.0102239,61,0.0305725,3.5316
2,1,Potentiostatic EIS,77.8762,3.53162,-0.000934766,1412.53,0.0249725,2.69141,0.024945,-0.00117263,2.42871,0.384934,0.00961276,43,0.0304417,3.53162
2,1,Potentiostatic EIS,78.2475,3.5316,-0.00139683,999.999,0.0253342,0.139969,0.0253341,-6.18893e-05,2.30527,0.404007,0.0102352,30,0.03,3.5316
2,1,Potentiostatic EIS,78.6185,3.53164,-0.000239603,707.945,0.0258687,-1.76287,0.0258565,0.0007958,2.19528,0.390332,0.0100974,21,0.0296633,3.53164
2,1,Potentiostatic EIS,78.9921,3.53166,0.000109543,501.185,0.0264724,-3.10784,0.0264335,0.00143521,2.04852,0.37944,0.0100447,15,0.029929,3.53166
2,1,Potentiostatic EIS,79.232,3.53164,-0.000339191,354.813,0.027144,-4.0487,0.0270763,0.00191648,1.87611,0.333946,0.00906463,10,0.0281839,3.53164
2,1,Potentiostatic EIS,79.471,3.53164,-0.00035054,251.188,0.0278534,-4.60181,0.0277636,0.00223469,1.63151,0.342361,0.00953592,8,0.0318487,3.53164
2,1,Potentiostatic EIS,79.7386,3.53165,0.000155416,177.828,0.0285657,-4.78331,0.0284662,0.00238202,1.32047,0.341555,0.00975674,8,0.0449874,3.53165
2,1,Potentiostatic EIS,80.056,3.53166,4.8977e-05,125.892,0.0292637,-4.81597,0.0291604,0.00245685,1.02058,0.336696,0.00985296,8,0.0635464,3.53166
2,1,Potentiostatic EIS,80.4439,3.53163,-0.000278867,89.1248,0.0299257,-4.67317,0.0298262,0.0024381,0.743362,0.330395,0.00988729,8,0.0897617,3.53163
2,1,Potentiostatic EIS,80.9371,3.53165,1.77075e-05,63.0956,0.0305448,-4.37408,0.0304558,0.00232959,0.564786,0.324113,0.00989996,8,0.126792,3.53165
2,1,Potentiostatic EIS,81.5815,3.53164,-0.000374282,44.6682,0.0310985,-3.99659,0.0310229,0.00216747,0.399822,0.312099,0.0097058,8,0.179098,3.53164
2,1,Potentiostatic EIS,82.2669,3.53164,-0.000834666,31.6227,0.031577,-3.61152,0.0315142,0.00198907,0.307541,0.312952,0.00988212,2,0.0632458,3.53164
2,1,Potentiostatic EIS,82.755,3.53165,-0.000368172,22.3871,0.0320027,-3.09863,0.0319559,0.0017299,0.268596,0.303708,0.00971947,2,0.0893371,3.53165
2,1,Potentiostatic EIS,83.4253,3.53165,-0.000555759,15.8489,0.0323243,-2.6551,0.0322896,0.00149738,0.222521,0.303688,0.0098165,2,0.126192,3.53165
2,1,Potentiostatic EIS,84.3501,3.53164,-0.000973238,11.2201,0.0325992,-2.3088,0.0325727,0.00131327,0.22947,0.303023,0.00987827,2,0.178251,3.53164
2,1,Potentiostatic EIS,85.6333,3.53164,-0.000925881,7.94325,0.0328015,-1.94337,0.0327827,0.00111235,0.195966,0.302108,0.00990958,2,0.251786,3.53164
2,1,Potentiostatic EIS,87.4238,3.53165,-0.0010766,5.62339,0.0329779,-1.7286,0.0329629,0.000994786,0.208634,0.301039,0.00992762,2,0.355657,3.53165
2,1,Potentiostatic EIS,89.9312,3.53165,-0.00115068,3.98106,0.0331223,-1.54515,0.0331103,0.000893132,0.215828,0.300039,0.00993798,2,0.502378,3.53165
2,1,Potentiostatic EIS,93.4416,3.53165,-0.000553307,2.81837,0.0332406,-1.44037,0.0332301,0.000835556,0.188983,0.298951,0.00993729,2,0.70963,3.53165
2,1,Potentiostatic EIS,98.3817,3.53166,-0.00121094,1.99526,0.0333681,-1.42634,0.0333578,0.000830589,0.226109,0.298065,0.00994587,2,1.00238,3.53166
2,1,Potentiostatic EIS,105.341,3.53166,-0.00115811,1.41253,0.0335024,-1.43625,0.0334919,0.000839727,0.18823,0.297019,0.00995084,2,1.4159,3.53166
2,1,Potentiostatic EIS,115.153,3.53166,-0.00154299,0.999995,0.0336107,-1.54461,0.0335985,0.000905989,0.209039,0.295947,0.009947,2,2.00001,3.53166
2,1,Potentiostatic EIS,128.997,3.53166,-0.00115459,0.707944,0.0337349,-1.66537,0.0337206,0.000980406,0.20772,0.294917,0.009949,2,2.82508,3.53166
2,1,Potentiostatic EIS,148.535,3.53164,-0.0012321,0.501186,0.0338826,-1.87614,0.0338644,0.00110928,0.15294,0.293442,0.00994259,2,3.99054,3.53164
2,1,Potentiostatic EIS,176.12,3.53165,-0.000976128,0.354812,0.0341182,-2.16866,0.0340937,0.00129107,0.203549,0.291492,0.00994519,2,5.63679,3.53165
2,1,Potentiostatic EIS,215.052,3.53166,-0.000592959,0.251188,0.0342556,-2.56039,0.0342214,0.00153028,0.220028,0.290496,0.00995111,2,7.96218,3.53166
2,1,Potentiostatic EIS,270.027,3.53166,-0.000790122,0.177827,0.0344568,-3.02793,0.0344087,0.0018201,0.181456,0.288883,0.00995399,2,11.2469,3.53166
2,1,Potentiostatic EIS,347.676,3.53166,-0.000671154,0.125892,0.0354094,-3.5593,0.0353411,0.00219827,0.198411,0.281253,0.00995898,2,15.8867,3.53166
2,1,Potentiostatic EIS,457.328,3.53165,-0.00096071,0.0891246,0.0356554,-4.29682,0.0355552,0.00267142,0.176525,0.279135,0.00995265,2,22.4405,3.53165
2,1,Potentiostatic EIS,612.185,3.53166,-0.000783269,0.0630955,0.0360584,-5.2054,0.0359097,0.00327145,0.187435,0.276087,0.00995524,2,31.698,3.53166
2,1,Potentiostatic EIS,822.208,3.53168,-0.000309158,0.05,0.0365948,-5.93372,0.0363987,0.00378309,0.183984,0.272069,0.00995629,2,40,3.53168