Folder: feature-extraction-paper-2024/Data/P190/P190_03/EIS_08_P190_03_5

Note: README.md
# feature-extraction-paper-2024
Repository for code used and referenced in 2024 feature extraction paper

File: 2_EIS_08_P190_03_5 20231004 162519.csv
Step number,Repeats,Step name,Elapsed Time  (s),DC Working Electrode (V),DC Current (A),Frequency (Hz),|Z| (Ohms),Phase (deg),Z' (Ohms),-Z" (Ohms),THD (%),Amplitude (A),Amplitude (V),No of Cycles,Duration of Each Frequency (s),IR Compensated DC Working Electrode (V)
2,1,Potentiostatic EIS,60.2985,3.53391,-0.0155234,1000000,2.10836,87.5074,0.0916918,-2.10637,1.31324,0.00474955,0.0100143,1430,0.00143,3.53391
2,1,Potentiostatic EIS,61.048,3.5338,-0.0180553,707946,1.51554,87.242,0.0729234,-1.51379,1.25149,0.00659982,0.0100023,1340,0.0018928,3.5338
2,1,Potentiostatic EIS,61.8352,3.53372,-0.0200692,501187,1.08465,86.6707,0.0629911,-1.08282,1.54358,0.00920559,0.00998488,1385,0.00276344,3.53372
2,1,Potentiostatic EIS,62.6746,3.53363,-0.0227483,354813,0.773039,85.5878,0.0594709,-0.770748,1.51597,0.0125061,0.00966793,1365,0.00384709,3.53363
2,1,Potentiostatic EIS,63.731,3.53354,-0.0249839,251189,0.557113,84.435,0.0540263,-0.554487,1.775,0.0179161,0.00998129,1340,0.00533464,3.53354
2,1,Potentiostatic EIS,65.142,3.53338,-0.0285453,177828,0.400099,83.5204,0.0451509,-0.397544,1.89749,0.0248537,0.00994401,1355,0.00761973,3.53338
2,1,Potentiostatic EIS,66.6818,3.53318,-0.0344535,125892,0.289276,82.1647,0.0394359,-0.286576,1.97248,0.0344542,0.00996682,1370,0.0108823,3.53318
2,1,Potentiostatic EIS,68.5511,3.53306,-0.0370014,89125.1,0.208197,80.7442,0.033487,-0.205486,1.9745,0.048027,0.00999919,1365,0.0153156,3.53306
2,1,Potentiostatic EIS,71.0158,3.53357,-0.0199631,63095.7,0.150662,78.6789,0.0295759,-0.14773,4.11103,0.0665078,0.0100201,1290,0.0204451,3.53357
2,1,Potentiostatic EIS,71.6833,3.53359,-0.0201724,44668.3,0.10954,75.1483,0.0280771,-0.105881,4.84874,0.0915532,0.0100289,910,0.0203724,3.53359
2,1,Potentiostatic EIS,72.3487,3.53354,-0.0197241,31622.8,0.0805855,71.3354,0.0257896,-0.0763474,5.72611,0.125274,0.0100954,645,0.0203967,3.53354
2,1,Potentiostatic EIS,73.013,3.53393,-0.00818435,22387.2,0.059385,66.3531,0.0238193,-0.0543987,6.53301,0.169454,0.0100633,455,0.0203241,3.53393
2,1,Potentiostatic EIS,73.6847,3.53393,-0.00713603,15848.9,0.0453137,59.5127,0.0229898,-0.0390487,6.88754,0.221138,0.0100207,320,0.0201906,3.53393
2,1,Potentiostatic EIS,74.3618,3.53398,-0.00653639,11220.2,0.0359214,50.9867,0.0226126,-0.027911,6.73598,0.279527,0.0100412,225,0.0200532,3.53398
2,1,Potentiostatic EIS,75.2245,3.53408,-0.00489555,7943.27,0.0296752,43.4757,0.0215343,-0.020418,3.58759,0.340685,0.0101099,244,0.0307178,3.53408
2,1,Potentiostatic EIS,75.8592,3.53409,-0.00461661,5623.41,0.0248989,32.3005,0.021046,-0.013305,4.03779,0.419229,0.0104384,172,0.0305864,3.53409
2,1,Potentiostatic EIS,76.4964,3.53414,-0.00338544,3981.07,0.023273,22.8297,0.0214498,-0.00902978,3.79948,0.441243,0.010269,122,0.0306451,3.53414
2,1,Potentiostatic EIS,77.0849,3.53418,-0.00217214,2818.38,0.0224234,15.3321,0.0216253,-0.00592902,3.54312,0.415745,0.00932239,86,0.030514,3.53418
2,1,Potentiostatic EIS,77.5895,3.53419,-0.00204741,1995.26,0.0221472,9.41005,0.0218492,-0.00362105,2.80966,0.465123,0.0103012,61,0.0305725,3.53419
2,1,Potentiostatic EIS,78.0458,3.53422,-0.00131411,1412.53,0.0222308,4.76977,0.0221539,-0.00184854,2.56003,0.387532,0.00861515,43,0.0304417,3.53422
2,1,Potentiostatic EIS,78.4165,3.53421,-0.00136882,999.999,0.0225772,1.37494,0.0225707,-0.000541738,2.22707,0.456639,0.0103096,30,0.03,3.53421
2,1,Potentiostatic EIS,78.7853,3.53425,-0.000427363,707.945,0.023052,-1.16259,0.0230473,0.000467716,2.10956,0.439449,0.0101302,21,0.0296633,3.53425
2,1,Potentiostatic EIS,79.1543,3.53423,-0.00106504,501.185,0.0236543,-3.01211,0.0236216,0.00124296,1.99373,0.424831,0.0100491,15,0.029929,3.53423
2,1,Potentiostatic EIS,79.434,3.53423,-0.000530777,354.813,0.0243387,-4.14646,0.024275,0.00175984,1.8791,0.366151,0.00891162,10,0.0281839,3.53423
2,1,Potentiostatic EIS,79.6721,3.53424,-0.00028029,251.188,0.0250686,-4.93293,0.0249757,0.00215563,1.6248,0.377567,0.00946506,8,0.0318487,3.53424
2,1,Potentiostatic EIS,79.9385,3.53424,-0.000116302,177.828,0.025817,-5.26447,0.0257081,0.00236879,1.33635,0.376883,0.00972998,8,0.0449874,3.53424
2,1,Potentiostatic EIS,80.2566,3.53423,-0.000625909,125.892,0.0265306,-5.30852,0.0264168,0.00245457,1.05271,0.370785,0.00983715,8,0.0635464,3.53423
2,1,Potentiostatic EIS,80.6462,3.53424,-0.000169179,89.1248,0.0272074,-5.15762,0.0270972,0.00244584,0.809389,0.363001,0.00987631,8,0.0897617,3.53424
2,1,Potentiostatic EIS,81.1407,3.53423,-0.000331364,63.0956,0.027848,-4.81027,0.0277499,0.00233523,0.621956,0.355259,0.00989324,8,0.126792,3.53423
2,1,Potentiostatic EIS,81.7881,3.53425,-0.000244,44.6682,0.028405,-4.39359,0.0283215,0.00217603,0.435812,0.341256,0.00969338,8,0.179098,3.53425
2,1,Potentiostatic EIS,82.4745,3.53424,-0.0010723,31.6227,0.0288864,-3.88053,0.0288202,0.00195492,0.323281,0.341638,0.00986867,2,0.0632458,3.53424
2,1,Potentiostatic EIS,82.9625,3.53425,-0.000591628,22.3871,0.0293037,-3.36347,0.0292532,0.00171925,0.282951,0.330664,0.00968965,2,0.0893371,3.53425
2,1,Potentiostatic EIS,83.6319,3.53426,-0.00149017,15.8489,0.0296226,-2.84753,0.029586,0.0014716,0.279464,0.331122,0.00980862,2,0.126192,3.53426
2,1,Potentiostatic EIS,84.5561,3.53423,-0.00136062,11.2201,0.0298773,-2.44499,0.0298501,0.00127457,0.239875,0.330524,0.00987515,2,0.178251,3.53423
2,1,Potentiostatic EIS,85.8402,3.53424,-0.00165873,7.94325,0.0300874,-2.11764,0.0300668,0.00111177,0.222438,0.329259,0.00990653,2,0.251786,3.53424
2,1,Potentiostatic EIS,87.6316,3.53425,-0.00176346,5.62339,0.0302549,-1.85113,0.0302391,0.000977315,0.233746,0.328067,0.00992565,2,0.355657,3.53425
2,1,Potentiostatic EIS,90.1378,3.53424,-0.00160251,3.98106,0.0303855,-1.65769,0.0303728,0.000878992,0.206465,0.326741,0.0099282,2,0.502378,3.53424
2,1,Potentiostatic EIS,93.6532,3.53424,-0.00207738,2.81837,0.0304695,-1.56398,0.0304581,0.000831608,0.257802,0.325901,0.00992993,2,0.70963,3.53424
2,1,Potentiostatic EIS,98.5948,3.53425,-0.00216971,1.99526,0.0305862,-1.54597,0.0305751,0.000825182,0.247079,0.324853,0.00993604,2,1.00238,3.53425
2,1,Potentiostatic EIS,105.555,3.53424,-0.0022051,1.41253,0.0307043,-1.57903,0.0306927,0.000846081,0.288852,0.323632,0.00993691,2,1.4159,3.53424
2,1,Potentiostatic EIS,115.368,3.53425,-0.00208723,0.999995,0.0308298,-1.68056,0.0308166,0.00090415,0.258525,0.322264,0.00993535,2,2.00001,3.53425
2,1,Potentiostatic EIS,129.212,3.53425,-0.00173821,0.707944,0.0309765,-1.86028,0.0309601,0.00100557,0.224083,0.320687,0.00993376,2,2.82508,3.53425
2,1,Potentiostatic EIS,148.751,3.53424,-0.00168384,0.501186,0.0311347,-2.09387,0.0311139,0.00113756,0.271548,0.319092,0.00993481,2,3.99054,3.53424
2,1,Potentiostatic EIS,176.335,3.53425,-0.00153844,0.354812,0.0313195,-2.43329,0.0312913,0.00132971,0.24779,0.317325,0.00993846,2,5.63679,3.53425
2,1,Potentiostatic EIS,215.265,3.53426,-0.00145935,0.251188,0.0315033,-2.86907,0.0314638,0.00157686,0.256171,0.315633,0.00994345,2,7.96218,3.53426
2,1,Potentiostatic EIS,270.239,3.53426,-0.00139697,0.177827,0.0317569,-3.39472,0.0317012,0.00188046,0.242539,0.313034,0.00994097,2,11.2469,3.53426
2,1,Potentiostatic EIS,347.889,3.53426,-0.00112184,0.125892,0.0320228,-4.0178,0.0319441,0.00224372,0.243043,0.310412,0.00994024,2,15.8867,3.53426
2,1,Potentiostatic EIS,457.541,3.53426,-0.000936815,0.0891246,0.0323396,-4.82586,0.032225,0.00272065,0.231142,0.30735,0.00993956,2,22.4405,3.53426
2,1,Potentiostatic EIS,612.397,3.53427,-0.000754546,0.0630955,0.0327516,-5.81835,0.0325829,0.00332019,0.232924,0.303609,0.00994368,2,31.698,3.53427
2,1,Potentiostatic EIS,822.419,3.53426,-0.000395579,0.05,0.0330967,-6.62863,0.0328755,0.00382047,0.210598,0.300484,0.00994507,2,40,3.53426