Folder: feature-extraction-paper-2024/Data/P190/P190_03/EIS_06_P190_03_4

Note: README.md
# feature-extraction-paper-2024
Repository for code used and referenced in 2024 feature extraction paper

File: 2_EIS_06_P190_03_4 20230921 115351.csv
Step number,Repeats,Step name,Elapsed Time  (s),DC Working Electrode (V),DC Current (A),Frequency (Hz),|Z| (Ohms),Phase (deg),Z' (Ohms),-Z" (Ohms),THD (%),Amplitude (A),Amplitude (V),No of Cycles,Duration of Each Frequency (s),IR Compensated DC Working Electrode (V)
2,1,Potentiostatic EIS,60.2942,3.53128,-0.015463,1000000,2.31618,87.8386,0.0873527,-2.31453,0.969978,0.00429625,0.00995093,1430,0.00143,3.53128
2,1,Potentiostatic EIS,60.8029,3.53117,-0.0179056,630957.375,1.4874,86.8824,0.0808935,-1.4852,0.984006,0.00668658,0.00994564,1355,0.00214753,3.53117
2,1,Potentiostatic EIS,61.3548,3.53105,-0.0205496,398107,0.95175,85.8979,0.0680818,-0.949312,1.20558,0.0104583,0.00995377,1400,0.00351664,3.53105
2,1,Potentiostatic EIS,62.0306,3.53093,-0.0234498,251189,0.60903,84.6109,0.0571991,-0.606338,1.31744,0.0163828,0.00997764,1340,0.00533464,3.53093
2,1,Potentiostatic EIS,62.9102,3.53077,-0.0270084,158489,0.39098,83.1688,0.0465052,-0.388205,1.59755,0.0254504,0.0099506,1360,0.00858102,3.53077
2,1,Potentiostatic EIS,64.1091,3.53054,-0.0325904,100000,0.25227,81.0557,0.0392217,-0.249202,1.81253,0.039481,0.00995989,1370,0.0137,3.53054
2,1,Potentiostatic EIS,65.258,3.53098,-0.0199829,63095.7,0.163928,77.8842,0.0344067,-0.160277,4.13326,0.0607075,0.00995168,1290,0.0204451,3.53098
2,1,Potentiostatic EIS,65.6962,3.53095,-0.0198315,39810.7,0.107256,72.9022,0.0315337,-0.102516,5.32041,0.0934566,0.0100238,815,0.0204719,3.53095
2,1,Potentiostatic EIS,66.1429,3.53128,-0.0117344,25118.9,0.0723679,65.7787,0.0296898,-0.0659972,6.55971,0.139847,0.0101202,510,0.0203034,3.53128
2,1,Potentiostatic EIS,66.5855,3.53139,-0.00912539,15848.9,0.0505099,55.8227,0.0283742,-0.041787,6.79711,0.198474,0.0100249,320,0.0201906,3.53139
2,1,Potentiostatic EIS,67.1099,3.53148,-0.0078806,9999.98,0.0385572,43.9287,0.027769,-0.0267495,3.04081,0.259148,0.00999201,307,0.0307001,3.53148
2,1,Potentiostatic EIS,67.534,3.53153,-0.0070655,6309.57,0.0311044,31.827,0.0264277,-0.0164031,3.95067,0.340231,0.0105827,193,0.0305885,3.53153
2,1,Potentiostatic EIS,67.9576,3.53156,-0.00609409,3981.07,0.0288165,19.2215,0.02721,-0.009487,3.75985,0.351703,0.0101348,122,0.0306451,3.53156
2,1,Potentiostatic EIS,68.2954,3.5316,-0.00510417,2511.88,0.0280559,10.9206,0.0275478,-0.00531516,3.11305,0.37005,0.0103821,77,0.0306543,3.5316
2,1,Potentiostatic EIS,68.5874,3.53163,-0.00436304,1584.89,0.0280413,5.00297,0.0279344,-0.00244541,2.74624,0.334223,0.00937204,48,0.030286,3.53163
2,1,Potentiostatic EIS,68.8323,3.53164,-0.00438617,999.999,0.028504,0.990794,0.0284997,-0.000492884,2.42331,0.358421,0.0102164,30,0.03,3.53164
2,1,Potentiostatic EIS,69.078,3.53164,-0.00425428,630.956,0.0292289,-1.68697,0.0292162,0.00086047,2.25487,0.343703,0.0100461,19,0.030113,3.53164
2,1,Potentiostatic EIS,69.2803,3.53165,-0.00386142,398.107,0.0301504,-3.40685,0.0300971,0.00179171,2.03311,0.29677,0.00894772,12,0.0301427,3.53165
2,1,Potentiostatic EIS,69.4401,3.53166,-0.00368509,251.189,0.0311866,-4.45494,0.0310923,0.00242242,1.62098,0.307636,0.0095941,8,0.0318486,3.53166
2,1,Potentiostatic EIS,69.6282,3.53167,-0.00345941,158.489,0.0322723,-4.90458,0.0321542,0.00275917,1.19288,0.304559,0.00982883,8,0.0504766,3.53167
2,1,Potentiostatic EIS,69.8702,3.53167,-0.00340222,100,0.033343,-4.95113,0.0332186,0.0028777,0.833823,0.296752,0.00989459,8,0.08,3.53167
2,1,Potentiostatic EIS,70.2007,3.53165,-0.00370271,63.0956,0.0343583,-4.65392,0.034245,0.00278773,0.548005,0.288429,0.00990994,8,0.126792,3.53165
2,1,Potentiostatic EIS,70.6727,3.53165,-0.00404944,39.8107,0.0352718,-4.14478,0.0351795,0.00254934,0.363537,0.276705,0.00975987,8,0.200951,3.53165
2,1,Potentiostatic EIS,70.9784,3.53166,-0.00377197,25.1188,0.0360345,-3.52323,0.0359664,0.00221444,0.298208,0.267913,0.0096541,2,0.0796217,3.53166
2,1,Potentiostatic EIS,71.4258,3.53166,-0.0039911,15.8489,0.036621,-2.88057,0.0365747,0.00184036,0.252214,0.268242,0.00982328,2,0.126192,3.53166
2,1,Potentiostatic EIS,72.1141,3.53167,-0.00381371,9.99998,0.0370304,-2.3322,0.0369997,0.00150689,0.2411,0.267236,0.00989586,2,0.2,3.53167
2,1,Potentiostatic EIS,73.1839,3.53167,-0.00391468,6.30957,0.0373478,-1.90414,0.0373272,0.00124097,0.218234,0.265646,0.00992131,2,0.316979,3.53167
2,1,Potentiostatic EIS,74.8569,3.53167,-0.00378984,3.98106,0.0375801,-1.59295,0.0375656,0.00104467,0.246408,0.264508,0.00994022,2,0.502378,3.53167
2,1,Potentiostatic EIS,77.4833,3.53167,-0.0041224,2.51188,0.0377734,-1.44363,0.0377615,0.000951644,0.234605,0.263253,0.00994396,2,0.796216,3.53167
2,1,Potentiostatic EIS,81.6311,3.53167,-0.00442354,1.58489,0.0379204,-1.42467,0.0379086,0.000942797,0.219126,0.262432,0.00995151,2,1.26192,3.53167
2,1,Potentiostatic EIS,88.1871,3.53167,-0.00395378,0.999998,0.0381224,-1.46049,0.0381101,0.000971647,0.233319,0.260864,0.00994475,2,2,3.53167
2,1,Potentiostatic EIS,98.5615,3.53167,-0.00382719,0.630956,0.0383366,-1.68908,0.03832,0.00113,0.243153,0.259574,0.00995118,2,3.16979,3.53167
2,1,Potentiostatic EIS,114.989,3.53166,-0.00359228,0.398106,0.0385527,-1.95007,0.0385304,0.00131189,0.203292,0.257969,0.00994538,2,5.02379,3.53166
2,1,Potentiostatic EIS,140.999,3.53167,-0.00255332,0.251188,0.0388631,-2.37696,0.0388297,0.00161181,0.212199,0.256068,0.00995159,2,7.96216,3.53167
2,1,Potentiostatic EIS,182.214,3.53167,-0.00186893,0.158489,0.0392461,-2.97804,0.0391931,0.00203896,0.2316,0.253652,0.00995488,2,12.6192,3.53167
2,1,Potentiostatic EIS,247.519,3.53166,-0.00182926,0.0999997,0.0397364,-3.75893,0.0396509,0.00260507,0.24885,0.250567,0.00995667,2,20.0001,3.53166
2,1,Potentiostatic EIS,350.977,3.53166,-0.00155852,0.0630957,0.0402903,-4.84879,0.0401461,0.00340559,0.192285,0.247139,0.00995728,2,31.6979,3.53166
2,1,Potentiostatic EIS,496.311,3.53165,-0.0009836,0.05,0.0406749,-5.55078,0.0404841,0.00393439,0.193989,0.244982,0.00996461,2,40,3.53165