Folder: feature-extraction-paper-2024/Data/P190/P190_03/EIS_02_P190_03_5

Note: README.md
# feature-extraction-paper-2024
Repository for code used and referenced in 2024 feature extraction paper

File: 2_EIS_02_P190_03_5 20230907 113639.csv
Step number,Repeats,Step name,Elapsed Time  (s),DC Working Electrode (V),DC Current (A),Frequency (Hz),|Z| (Ohms),Phase (deg),Z' (Ohms),-Z" (Ohms),THD (%),Amplitude (A),Amplitude (V),No of Cycles,Duration of Each Frequency (s),IR Compensated DC Working Electrode (V)
2,1,Potentiostatic EIS,0,3.45786,-0.00946675,1000000,2.95248,88.0804,0.0989012,-2.95082,1.41469,0.00335494,0.00990525,1430,0.00143,3.45786
2,1,Potentiostatic EIS,0.485181,3.45774,-0.011509,630957.375,1.88586,87.0864,0.0958593,-1.88342,1.46361,0.00528776,0.00997194,1355,0.00214753,3.45774
2,1,Potentiostatic EIS,1.0389,3.45764,-0.0131208,398107,1.20007,86.1005,0.0816124,-1.19729,1.47778,0.00831948,0.00998396,1400,0.00351664,3.45764
2,1,Potentiostatic EIS,1.70928,3.45754,-0.0147407,251189,0.767647,84.7306,0.0704992,-0.764403,1.92834,0.0127525,0.00978897,1340,0.00533464,3.45754
2,1,Potentiostatic EIS,2.5707,3.4574,-0.0170859,158489,0.492011,83.0513,0.0595238,-0.488397,1.74108,0.0202527,0.00996449,1360,0.00858102,3.4574
2,1,Potentiostatic EIS,3.89352,3.45726,-0.0197998,100000,0.317953,80.7609,0.051049,-0.313828,1.86731,0.0310699,0.00987848,1370,0.0137,3.45726
2,1,Potentiostatic EIS,4.80049,3.45708,-0.0229383,63095.7,0.206326,77.8419,0.0434543,-0.201698,2.03511,0.0478588,0.00987475,1290,0.0204451,3.45708
2,1,Potentiostatic EIS,5.33236,3.45699,-0.0241386,39810.7,0.136141,72.9052,0.0400191,-0.130126,2.17559,0.0710944,0.00967912,815,0.0204719,3.45699
2,1,Potentiostatic EIS,5.90424,3.45794,-0.00526184,25118.9,0.0916348,65.7448,0.0376437,-0.0835458,5.5539,0.109941,0.0100744,510,0.0203034,3.45794
2,1,Potentiostatic EIS,6.32718,3.45804,-0.00379151,15848.9,0.0637956,56.2646,0.0354294,-0.0530531,6.33677,0.15222,0.00971185,320,0.0201906,3.45804
2,1,Potentiostatic EIS,6.83628,3.45825,-0.00270339,9999.98,0.0485473,44.5681,0.0345859,-0.0340683,2.98048,0.205818,0.00999191,307,0.0307001,3.45825
2,1,Potentiostatic EIS,7.25981,3.4583,-0.00178446,6309.57,0.0392165,32.6,0.033038,-0.0211287,4.0032,0.26473,0.0103818,193,0.0305885,3.4583
2,1,Potentiostatic EIS,7.64144,3.45834,-0.00100425,3981.07,0.0358916,20.4139,0.0336375,-0.012519,3.82872,0.275674,0.00989437,122,0.0306451,3.45834
2,1,Potentiostatic EIS,7.97845,3.45836,-0.000568947,2511.88,0.0346632,11.9727,0.0339091,-0.00719073,3.24136,0.295563,0.0102451,77,0.0306543,3.45836
2,1,Potentiostatic EIS,8.22518,3.45838,-0.000526621,1584.89,0.0344622,5.92083,0.0342784,-0.00355492,2.8457,0.302125,0.0104119,48,0.030286,3.45838
2,1,Potentiostatic EIS,8.47206,3.45838,-0.00010917,999.999,0.0348681,1.78602,0.0348512,-0.00108673,2.4301,0.291224,0.0101544,30,0.03,3.45838
2,1,Potentiostatic EIS,8.72191,3.45838,-0.000350654,630.956,0.0355917,-1.12942,0.0355848,0.000701541,2.16993,0.282191,0.0100436,19,0.030113,3.45838
2,1,Potentiostatic EIS,8.88106,3.4584,-8.46992e-05,398.107,0.036616,-3.03158,0.0365647,0.00193649,1.89538,0.249303,0.00912848,12,0.0301427,3.4584
2,1,Potentiostatic EIS,9.04011,3.45839,-8.49789e-05,251.189,0.0378301,-4.26569,0.0377253,0.00281386,1.47745,0.255848,0.00967876,8,0.0318486,3.45839
2,1,Potentiostatic EIS,9.22797,3.45839,0.000128715,158.489,0.0391367,-4.89065,0.0389942,0.00333657,1.06216,0.252348,0.00987607,8,0.0504766,3.45839
2,1,Potentiostatic EIS,9.46793,3.45839,3.99472e-05,100,0.0404615,-5.13387,0.0402992,0.00362063,0.717762,0.245415,0.00992987,8,0.08,3.45839
2,1,Potentiostatic EIS,9.79674,3.4584,0.000141269,63.0956,0.0417232,-5.00776,0.041564,0.00364205,0.473849,0.238205,0.00993869,8,0.126792,3.4584
2,1,Potentiostatic EIS,10.2689,3.45839,-0.000124136,39.8107,0.0429349,-4.73971,0.0427881,0.00354768,0.314424,0.226274,0.00971504,8,0.200951,3.45839
2,1,Potentiostatic EIS,10.5747,3.4584,-2.975e-05,25.1188,0.0440203,-4.32954,0.0438947,0.00332322,0.234409,0.219166,0.0096477,2,0.0796217,3.4584
2,1,Potentiostatic EIS,11.0218,3.45839,-0.000219883,15.8489,0.0449612,-3.90549,0.0448568,0.00306235,0.206066,0.218602,0.00982851,2,0.126192,3.45839
2,1,Potentiostatic EIS,11.7098,3.4584,-1.17383e-05,9.99998,0.0458251,-3.44266,0.0457425,0.00275178,0.175325,0.216113,0.00990345,2,0.2,3.4584
2,1,Potentiostatic EIS,12.7776,3.45841,-0.000252259,6.30957,0.0465937,-3.00299,0.0465297,0.00244095,0.177552,0.213235,0.00993539,2,0.316979,3.45841
2,1,Potentiostatic EIS,14.4445,3.4584,-0.000331667,3.98106,0.0471691,-2.66637,0.047118,0.00219431,0.162983,0.211051,0.00995506,2,0.502378,3.4584
2,1,Potentiostatic EIS,17.0724,3.4584,-0.00070153,2.51188,0.0477294,-2.38963,0.0476879,0.00199007,0.192438,0.208755,0.00996376,2,0.796216,3.4584
2,1,Potentiostatic EIS,21.2202,3.4584,-0.000856725,1.58489,0.0481456,-2.29526,0.0481069,0.00192819,0.154879,0.206973,0.00996483,2,1.26192,3.4584
2,1,Potentiostatic EIS,27.7768,3.4584,-0.000473679,0.999998,0.0485824,-2.30323,0.0485431,0.00195244,0.174021,0.205042,0.00996142,2,2,3.4584
2,1,Potentiostatic EIS,38.1505,3.45839,-0.000836206,0.630956,0.0488874,-2.464,0.0488422,0.00210175,0.186239,0.204007,0.00997336,2,3.16979,3.45839
2,1,Potentiostatic EIS,54.5791,3.45839,-0.001198,0.398106,0.0491326,-2.76578,0.0490754,0.0023708,0.202829,0.202863,0.00996715,2,5.02379,3.45839
2,1,Potentiostatic EIS,80.5895,3.45839,-0.0004492,0.251188,0.0494319,-3.27221,0.0493513,0.00282156,0.151737,0.201674,0.00996909,2,7.96216,3.45839
2,1,Potentiostatic EIS,121.804,3.45839,0.000102562,0.158489,0.0501059,-3.975,0.0499854,0.0034734,0.164144,0.198924,0.00996724,2,12.6192,3.45839
2,1,Potentiostatic EIS,187.108,3.45839,-0.000447264,0.0999997,0.0508616,-4.9479,0.0506721,0.00438681,0.163179,0.195907,0.00996417,2,20.0001,3.45839