Folder: feature-extraction-paper-2024/Data/P190/P190_03/EIS_06_P190_03_5

Note: README.md
# feature-extraction-paper-2024
Repository for code used and referenced in 2024 feature extraction paper

File: 2_EIS_06_P190_03_5 20230921 124719.csv
Step number,Repeats,Step name,Elapsed Time  (s),DC Working Electrode (V),DC Current (A),Frequency (Hz),|Z| (Ohms),Phase (deg),Z' (Ohms),-Z" (Ohms),THD (%),Amplitude (A),Amplitude (V),No of Cycles,Duration of Each Frequency (s),IR Compensated DC Working Electrode (V)
2,1,Potentiostatic EIS,60.3022,3.53453,-0.0132707,1000000,3.90304,88.8507,0.0782845,-3.90225,1.32671,0.00254491,0.00993285,1430,0.00143,3.53453
2,1,Potentiostatic EIS,60.7705,3.53447,-0.014904,630957.375,2.48781,87.7932,0.0957974,-2.48597,1.38773,0.00398777,0.00992092,1355,0.00214753,3.53447
2,1,Potentiostatic EIS,61.2985,3.53438,-0.0169805,398107,1.58347,87.3248,0.0739062,-1.58175,1.2553,0.0062997,0.00997541,1400,0.00351664,3.53438
2,1,Potentiostatic EIS,61.9333,3.53432,-0.0182292,251189,1.01088,86.394,0.06358,-1.00887,1.49247,0.00987683,0.00998432,1340,0.00533464,3.53432
2,1,Potentiostatic EIS,62.9004,3.53422,-0.0203906,158489,0.644784,85.3509,0.052262,-0.642662,1.52757,0.0149546,0.00964106,1360,0.00858102,3.53422
2,1,Potentiostatic EIS,64.3273,3.53411,-0.0231245,100000,0.413032,84.0115,0.0430911,-0.410778,1.67824,0.0240887,0.00994944,1370,0.0137,3.53411
2,1,Potentiostatic EIS,65.2398,3.53396,-0.0265017,63095.7,0.266217,82.0792,0.0366858,-0.263677,1.80882,0.0374289,0.00996437,1290,0.0204451,3.53396
2,1,Potentiostatic EIS,65.7399,3.53388,-0.0275906,39810.7,0.17203,79.0242,0.0327536,-0.168884,2.0845,0.0578778,0.00995672,815,0.0204719,3.53388
2,1,Potentiostatic EIS,66.2936,3.53463,-0.00587,25118.9,0.11282,74.5991,0.0299617,-0.108769,5.16084,0.0874216,0.00986264,510,0.0203034,3.53463
2,1,Potentiostatic EIS,66.7024,3.53468,-0.00502469,15848.9,0.0744168,68.0162,0.0278575,-0.0690059,6.56779,0.133487,0.0099337,320,0.0201906,3.53468
2,1,Potentiostatic EIS,67.1691,3.53475,-0.00458855,9999.98,0.0517368,58.9905,0.0266538,-0.0443427,3.41558,0.192139,0.00994065,307,0.0307001,3.53475
2,1,Potentiostatic EIS,67.5917,3.53475,-0.0050857,6309.57,0.0372633,48.0213,0.0249237,-0.0277013,4.90086,0.279274,0.0104067,193,0.0305885,3.53475
2,1,Potentiostatic EIS,68.0189,3.53482,-0.00327859,3981.07,0.0305125,33.5138,0.0254399,-0.0168471,4.85541,0.332149,0.0101347,122,0.0306451,3.53482
2,1,Potentiostatic EIS,68.3546,3.5348,-0.00376388,2511.88,0.0274837,21.4692,0.0255767,-0.0100591,3.9721,0.378819,0.0104113,77,0.0306543,3.5348
2,1,Potentiostatic EIS,68.6466,3.53484,-0.00246674,1584.89,0.0264228,12.0508,0.0258405,-0.0055165,3.29214,0.32566,0.00860485,48,0.030286,3.53484
2,1,Potentiostatic EIS,68.8938,3.53485,-0.00243503,999.999,0.0264309,5.39171,0.026314,-0.00248356,2.5337,0.388277,0.0102625,30,0.03,3.53485
2,1,Potentiostatic EIS,69.1402,3.53487,-0.00193085,630.956,0.0270066,0.887286,0.0270033,-0.000418209,2.14523,0.372978,0.0100729,19,0.030113,3.53487
2,1,Potentiostatic EIS,69.3441,3.53487,-0.00187996,398.107,0.0278641,-2.0157,0.0278469,0.000980072,1.95436,0.314595,0.0087659,12,0.0301427,3.53487
2,1,Potentiostatic EIS,69.5032,3.53486,-0.00199813,251.189,0.0288638,-3.73145,0.0288026,0.00187846,1.61881,0.329624,0.0095142,8,0.0318486,3.53486
2,1,Potentiostatic EIS,69.6911,3.53487,-0.00165149,158.489,0.0299637,-4.5833,0.0298679,0.00239435,1.19141,0.327057,0.00979983,8,0.0504766,3.53487
2,1,Potentiostatic EIS,69.9327,3.53487,-0.00172378,100,0.0310379,-4.85642,0.0309264,0.00262764,0.820969,0.318348,0.00988083,8,0.08,3.53487
2,1,Potentiostatic EIS,70.2636,3.53488,-0.00187476,63.0956,0.0320447,-4.63654,0.0319398,0.00259032,0.590475,0.308973,0.00990094,8,0.126792,3.53488
2,1,Potentiostatic EIS,70.735,3.53487,-0.00210637,39.8107,0.0329312,-4.17047,0.032844,0.00239489,0.387429,0.296016,0.00974814,8,0.200951,3.53487
2,1,Potentiostatic EIS,71.0415,3.53488,-0.00197273,25.1188,0.0336516,-3.5314,0.0335877,0.00207279,0.290834,0.286657,0.00964655,2,0.0796217,3.53488
2,1,Potentiostatic EIS,71.4889,3.53487,-0.00238418,15.8489,0.0342143,-2.91715,0.03417,0.00174123,0.2658,0.28676,0.00981124,2,0.126192,3.53487
2,1,Potentiostatic EIS,72.1772,3.53487,-0.0024213,9.99998,0.0346074,-2.34445,0.0345785,0.00141568,0.256184,0.286071,0.00990021,2,0.2,3.53487
2,1,Potentiostatic EIS,73.248,3.53488,-0.00235577,6.30957,0.0349047,-1.92718,0.034885,0.00117382,0.261097,0.284503,0.00993046,2,0.316979,3.53488
2,1,Potentiostatic EIS,74.9186,3.53489,-0.00225699,3.98106,0.0351353,-1.62423,0.0351212,0.000995891,0.245408,0.282943,0.0099413,2,0.502378,3.53489
2,1,Potentiostatic EIS,77.5471,3.53488,-0.00226651,2.51188,0.0353084,-1.48394,0.0352966,0.000914373,0.230255,0.281542,0.00994078,2,0.796216,3.53488
2,1,Potentiostatic EIS,81.6945,3.5349,-0.00288807,1.58489,0.0354387,-1.4765,0.035427,0.00091315,0.25465,0.280488,0.00994015,2,1.26192,3.5349
2,1,Potentiostatic EIS,88.25,3.5349,-0.00242552,0.999998,0.0356205,-1.56644,0.0356071,0.000973725,0.25817,0.279242,0.00994673,2,2,3.5349
2,1,Potentiostatic EIS,98.6235,3.5349,-0.00210522,0.630956,0.0358389,-1.75403,0.0358221,0.00109699,0.221016,0.277544,0.00994687,2,3.16979,3.5349
2,1,Potentiostatic EIS,115.053,3.5349,-0.00231428,0.398106,0.0360805,-2.10001,0.0360563,0.00132213,0.273979,0.275793,0.00995076,2,5.02379,3.5349
2,1,Potentiostatic EIS,141.064,3.5349,-0.00203134,0.251188,0.0363843,-2.5472,0.0363484,0.00161701,0.234219,0.27346,0.00994966,2,7.96216,3.5349
2,1,Potentiostatic EIS,182.278,3.53489,-0.00108686,0.158489,0.0367893,-3.21148,0.0367315,0.002061,0.218618,0.270365,0.00994657,2,12.6192,3.53489
2,1,Potentiostatic EIS,247.582,3.5349,-0.000942174,0.0999997,0.037248,-4.02264,0.0371563,0.00261297,0.223043,0.267324,0.00995728,2,20.0001,3.5349
2,1,Potentiostatic EIS,351.04,3.53489,-0.00143477,0.0630957,0.0378638,-5.17028,0.0377097,0.00341213,0.21272,0.262873,0.00995337,2,31.6979,3.53489
2,1,Potentiostatic EIS,496.374,3.5349,-0.000299807,0.05,0.0382244,-5.90555,0.0380215,0.00393286,0.227699,0.260501,0.00995749,2,40,3.5349