Folder: feature-extraction-paper-2024/Data/P190/P190_03/EIS_02_P190_03_2

Note: README.md
# feature-extraction-paper-2024
Repository for code used and referenced in 2024 feature extraction paper

File: 2_EIS_02_P190_03_2 20230907 110700.csv
Step number,Repeats,Step name,Elapsed Time  (s),DC Working Electrode (V),DC Current (A),Frequency (Hz),|Z| (Ohms),Phase (deg),Z' (Ohms),-Z" (Ohms),THD (%),Amplitude (A),Amplitude (V),No of Cycles,Duration of Each Frequency (s),IR Compensated DC Working Electrode (V)
2,1,Potentiostatic EIS,0,3.45756,-0.0122947,1000000,1.5845,86.1694,0.105855,-1.58096,1.01434,0.00630006,0.00998256,1430,0.00143,3.45756
2,1,Potentiostatic EIS,0.502258,3.45737,-0.0162062,630957.375,1.02024,85.2013,0.0853483,-1.01667,1.29277,0.00970737,0.00990379,1355,0.00214753,3.45737
2,1,Potentiostatic EIS,1.10005,3.45722,-0.0196214,398107,0.656726,84.053,0.0680425,-0.653191,1.25951,0.0151721,0.00996397,1400,0.00351664,3.45722
2,1,Potentiostatic EIS,1.94789,3.45702,-0.0234322,251189,0.424318,82.558,0.0549588,-0.420744,1.73,0.0235199,0.00997996,1340,0.00533464,3.45702
2,1,Potentiostatic EIS,2.85377,3.45681,-0.0279631,158489,0.274692,80.6854,0.0444601,-0.27107,1.96334,0.036197,0.00994304,1360,0.00858102,3.45681
2,1,Potentiostatic EIS,4.35716,3.45652,-0.033372,100000,0.179378,78.1156,0.0369409,-0.175533,1.96891,0.0555399,0.00996266,1370,0.0137,3.45652
2,1,Potentiostatic EIS,5.67601,3.45715,-0.0172871,63095.7,0.117807,74.1881,0.0321001,-0.113349,4.26374,0.0844537,0.00994927,1290,0.0204451,3.45715
2,1,Potentiostatic EIS,6.12399,3.45714,-0.017618,39810.7,0.0787806,68.2245,0.0292253,-0.0731591,5.56725,0.126197,0.00994188,815,0.0204719,3.45714
2,1,Potentiostatic EIS,6.56547,3.45745,-0.00993446,25118.9,0.0546127,59.8414,0.0274372,-0.0472202,6.38571,0.183586,0.0100262,510,0.0203034,3.45745
2,1,Potentiostatic EIS,7.01363,3.45758,-0.0066717,15848.9,0.039641,49.0665,0.0259721,-0.0299476,6.45541,0.254357,0.010083,320,0.0201906,3.45758
2,1,Potentiostatic EIS,7.59496,3.45787,-0.00441899,9999.98,0.031832,37.0784,0.0253959,-0.0191917,2.656,0.314169,0.0100006,307,0.0307001,3.45787
2,1,Potentiostatic EIS,8.0177,3.45791,-0.0037181,6309.57,0.0267017,25.6512,0.0240701,-0.011559,3.46252,0.374673,0.0100044,193,0.0305885,3.45791
2,1,Potentiostatic EIS,8.43953,3.45797,-0.00224665,3981.07,0.0257169,14.3377,0.0249159,-0.00636846,3.27645,0.397078,0.0102116,122,0.0306451,3.45797
2,1,Potentiostatic EIS,8.77384,3.458,-0.00146786,2511.88,0.0255053,7.31433,0.0252977,-0.00324715,2.96763,0.408794,0.0104264,77,0.0306543,3.458
2,1,Potentiostatic EIS,9.06709,3.45802,-0.00129175,1584.89,0.0257797,2.31259,0.0257587,-0.00104024,2.59241,0.345236,0.00890006,48,0.030286,3.45802
2,1,Potentiostatic EIS,9.31338,3.45805,-0.000902277,999.999,0.026362,-1.147,0.0263567,0.000527703,2.35022,0.38796,0.0102274,30,0.03,3.45805
2,1,Potentiostatic EIS,9.5596,3.45806,-0.000643619,630.956,0.027216,-3.56877,0.0271632,0.0016941,2.2099,0.3698,0.0100645,19,0.030113,3.45806
2,1,Potentiostatic EIS,9.76327,3.45806,-8.71603e-05,398.107,0.0282325,-5.17417,0.0281175,0.00254611,2.0129,0.316699,0.00894121,12,0.0301427,3.45806
2,1,Potentiostatic EIS,9.92271,3.45806,-0.000370267,251.189,0.0294267,-6.20729,0.0292541,0.00318178,1.67146,0.327125,0.00962619,8,0.0318486,3.45806
2,1,Potentiostatic EIS,10.1106,3.45807,-8.90941e-05,158.489,0.0307134,-6.63673,0.0305076,0.00354967,1.21661,0.320985,0.00985856,8,0.0504766,3.45807
2,1,Potentiostatic EIS,10.3514,3.45807,-6.94136e-05,100,0.0320049,-6.72103,0.031785,0.00374571,0.842182,0.309696,0.0099118,8,0.08,3.45807
2,1,Potentiostatic EIS,10.6815,3.45808,-6.10804e-05,63.0956,0.0332821,-6.40384,0.0330744,0.00371213,0.570108,0.298251,0.0099264,8,0.126792,3.45808
2,1,Potentiostatic EIS,11.1562,3.45806,-0.000329406,39.8107,0.03446,-5.98801,0.034272,0.00359488,0.372388,0.281194,0.00968995,8,0.200951,3.45806
2,1,Potentiostatic EIS,11.4611,3.45807,-0.000581079,25.1188,0.0355492,-5.4077,0.035391,0.00335023,0.270966,0.271235,0.00964224,2,0.0796217,3.45807
2,1,Potentiostatic EIS,11.908,3.45808,-0.000349994,15.8489,0.0365139,-4.8689,0.0363821,0.00309916,0.266347,0.268846,0.00981657,2,0.126192,3.45808
2,1,Potentiostatic EIS,12.5967,3.45808,-0.000572139,9.99998,0.0373724,-4.28647,0.0372679,0.00279334,0.22851,0.264785,0.00989564,2,0.2,3.45808
2,1,Potentiostatic EIS,13.6672,3.45809,-0.000738838,6.30957,0.0381095,-3.73946,0.0380283,0.00248548,0.194674,0.260387,0.00992322,2,0.316979,3.45809
2,1,Potentiostatic EIS,15.3417,3.45808,-0.000744428,3.98106,0.0387097,-3.28147,0.0386463,0.00221579,0.202243,0.256844,0.00994235,2,0.502378,3.45808
2,1,Potentiostatic EIS,17.9695,3.45808,-0.00134312,2.51188,0.0392202,-2.96581,0.0391677,0.00202926,0.180451,0.253639,0.00994779,2,0.796216,3.45808
2,1,Potentiostatic EIS,22.1178,3.45808,-0.00134916,1.58489,0.0396331,-2.80254,0.0395857,0.00193782,0.185784,0.25117,0.00995463,2,1.26192,3.45808
2,1,Potentiostatic EIS,28.6739,3.45808,-0.00109816,0.999998,0.0400631,-2.8024,0.0400151,0.00195875,0.163664,0.248582,0.00995897,2,2,3.45808
2,1,Potentiostatic EIS,39.0476,3.45807,-0.0014724,0.630956,0.040485,-2.9417,0.0404317,0.00207768,0.178129,0.245962,0.00995777,2,3.16979,3.45807
2,1,Potentiostatic EIS,55.4747,3.45807,-0.00179332,0.398106,0.0409801,-3.2826,0.0409129,0.00234656,0.133764,0.242917,0.00995476,2,5.02379,3.45807
2,1,Potentiostatic EIS,81.4851,3.45807,-0.00101901,0.251188,0.041463,-3.83862,0.04137,0.00277581,0.180013,0.240042,0.00995284,2,7.96216,3.45807
2,1,Potentiostatic EIS,122.699,3.45808,-0.000688173,0.158489,0.0421028,-4.67187,0.0419629,0.00342923,0.158521,0.236574,0.0099604,2,12.6192,3.45808
2,1,Potentiostatic EIS,188.003,3.45809,-0.0016844,0.0999997,0.0432195,-5.71801,0.0430045,0.00430607,0.468969,0.23036,0.0099561,2,20.0001,3.45809