Folder: feature-extraction-paper-2024/Data/P190_02/EIS_04_P190_02_5

Note: README.md
# feature-extraction-paper-2024
Repository for code used and referenced in 2024 feature extraction paper

File: 2_EIS_04_P190_02_5 20230825 153318.csv
Step number,Repeats,Step name,Elapsed Time  (s),DC Working Electrode (V),DC Current (A),Frequency (Hz),|Z| (Ohms),Phase (deg),Z' (Ohms),-Z" (Ohms),THD (%),Amplitude (A),Amplitude (V),No of Cycles,Duration of Each Frequency (s),IR Compensated DC Working Electrode (V)
2,1,Potentiostatic EIS,0,3.55275,-0.0123514,1000000,3.67328,88.6962,0.0835826,-3.67233,1.22848,0.00270653,0.00994182,1430,0.00143,3.55275
2,1,Potentiostatic EIS,0.23309,3.5527,-0.0133767,794328,2.9287,88.124,0.0958751,-2.92714,1.37498,0.00338282,0.00990741,1445,0.00181915,3.5527
2,1,Potentiostatic EIS,0.474272,3.55266,-0.0140132,630957.375,2.33064,87.5438,0.0998812,-2.3285,1.46043,0.0042613,0.00993163,1355,0.00214753,3.55266
2,1,Potentiostatic EIS,0.728522,3.55261,-0.0150484,501187.25,1.86009,87.7573,0.072789,-1.85867,1.38975,0.00523547,0.00973863,1385,0.00276344,3.55261
2,1,Potentiostatic EIS,1.01403,3.55259,-0.0160454,398107,1.48885,87.0651,0.0762308,-1.4869,1.26723,0.00668761,0.0099569,1400,0.00351664,3.55259
2,1,Potentiostatic EIS,1.31284,3.55255,-0.0163329,316228,1.18,86.7033,0.0678573,-1.17804,1.40404,0.00842448,0.00994086,1370,0.00433232,3.55255
2,1,Potentiostatic EIS,1.64617,3.5525,-0.0168473,251189,0.950854,86.0184,0.0660237,-0.948559,1.30693,0.0104813,0.00996623,1340,0.00533464,3.5525
2,1,Potentiostatic EIS,2.06492,3.55246,-0.0183557,199526,0.75657,85.8246,0.0550855,-0.754561,1.56757,0.0131212,0.00992719,1355,0.00679109,3.55246
2,1,Potentiostatic EIS,2.52311,3.55243,-0.0188877,158489,0.608221,84.8959,0.0541107,-0.605809,1.39301,0.0163606,0.00995091,1360,0.00858102,3.55243
2,1,Potentiostatic EIS,3.05216,3.55233,-0.020431,125893,0.488507,84.2644,0.04882,-0.486062,1.66787,0.0204151,0.00997291,1370,0.0108823,3.55233
2,1,Potentiostatic EIS,3.84521,3.55227,-0.0219039,100000,0.389772,83.6675,0.042991,-0.387394,1.7816,0.0255764,0.00996906,1370,0.0137,3.55227
2,1,Potentiostatic EIS,4.52319,3.55223,-0.023186,79432.8,0.313779,82.8413,0.0391025,-0.311333,2.37685,0.0319319,0.0100197,1365,0.0171843,3.55223
2,1,Potentiostatic EIS,4.7658,3.55217,-0.0246297,63095.7,0.251461,81.9016,0.0354242,-0.248954,1.98359,0.0397019,0.00998353,1290,0.0204451,3.55217
2,1,Potentiostatic EIS,5.01791,3.55216,-0.0254447,50118.75,0.202968,80.143,0.0347462,-0.199972,1.94168,0.0492541,0.00999709,1025,0.0204514,3.55216
2,1,Potentiostatic EIS,5.26808,3.55208,-0.02629,39810.7,0.162786,79.0792,0.0308401,-0.159838,1.98327,0.061212,0.00996448,815,0.0204719,3.55208
2,1,Potentiostatic EIS,5.61719,3.55251,-0.014851,31622.8,0.132316,76.962,0.02985,-0.128905,4.83327,0.07561,0.0100045,645,0.0203967,3.55251
2,1,Potentiostatic EIS,5.82341,3.55286,-0.00564847,25118.9,0.107246,74.7897,0.0281374,-0.10349,5.61431,0.0912226,0.00978352,510,0.0203034,3.55286
2,1,Potentiostatic EIS,6.02722,3.55289,-0.00580726,19952.6,0.0870274,72.057,0.0268106,-0.0827947,6.21732,0.113101,0.00984245,405,0.0202981,3.55289
2,1,Potentiostatic EIS,6.23205,3.55292,-0.00507912,15848.9,0.0707093,68.7626,0.0256132,-0.0659073,6.77206,0.139291,0.00984875,320,0.0201906,3.55292
2,1,Potentiostatic EIS,6.43548,3.55295,-0.00463966,12589.2,0.058361,64.7294,0.024914,-0.052776,7.34248,0.171024,0.00998122,255,0.0202554,3.55295
2,1,Potentiostatic EIS,6.70078,3.55294,-0.00439758,9999.98,0.0488541,60.1795,0.0242944,-0.0423852,3.51035,0.204567,0.00999394,307,0.0307001,3.55294
2,1,Potentiostatic EIS,6.91303,3.55294,-0.00513039,7943.27,0.0414335,55.3391,0.023564,-0.0340804,4.3516,0.255355,0.0105802,244,0.0307178,3.55294
2,1,Potentiostatic EIS,7.12899,3.55295,-0.00448485,6309.57,0.0348165,49.8284,0.0224594,-0.0266038,5.0303,0.299906,0.0104417,193,0.0305885,3.55295
2,1,Potentiostatic EIS,7.34044,3.55298,-0.00368169,5011.87,0.0306079,42.0034,0.0227449,-0.020482,5.21149,0.33704,0.0103161,153,0.0305276,3.55298
2,1,Potentiostatic EIS,7.55561,3.55299,-0.00355712,3981.07,0.0279411,34.9087,0.0229135,-0.0159898,5.00838,0.364583,0.0101868,122,0.0306451,3.55299
2,1,Potentiostatic EIS,7.72403,3.553,-0.00294674,3162.27,0.0261044,28.3331,0.0229772,-0.0123891,4.71919,0.351798,0.0091835,97,0.0306742,3.553
2,1,Potentiostatic EIS,7.89158,3.55301,-0.0030447,2511.88,0.0249422,22.2688,0.0230819,-0.0094519,4.16178,0.420541,0.0104892,77,0.0306543,3.55301
2,1,Potentiostatic EIS,8.0605,3.55301,-0.00307539,1995.26,0.0242478,16.8218,0.0232102,-0.00701721,3.68843,0.424499,0.0102931,61,0.0305725,3.55301
2,1,Potentiostatic EIS,8.2294,3.55303,-0.00267886,1584.89,0.023932,12.1363,0.0233971,-0.00503143,3.27151,0.423305,0.0101305,48,0.030286,3.55303
2,1,Potentiostatic EIS,8.35358,3.55303,-0.00230762,1258.92,0.0238635,8.204,0.0236193,-0.00340528,2.88671,0.389678,0.00929909,38,0.0301845,3.55303
2,1,Potentiostatic EIS,8.47714,3.55304,-0.00223854,999.999,0.0239762,4.956,0.0238866,-0.00207132,2.53386,0.429549,0.010299,30,0.03,3.55304
2,1,Potentiostatic EIS,8.60117,3.55306,-0.00162455,794.328,0.0242231,2.20851,0.0242051,-0.000933466,2.28703,0.419919,0.0101717,24,0.0302142,3.55306
2,1,Potentiostatic EIS,8.72571,3.55305,-0.00167415,630.956,0.024561,-0.0757821,0.024561,3.24855e-05,2.19921,0.410569,0.010084,19,0.030113,3.55305
2,1,Potentiostatic EIS,8.85062,3.55305,-0.00165327,501.187,0.0249671,-1.94783,0.0249527,0.000848621,2.05167,0.402501,0.0100493,15,0.029929,3.55305
2,1,Potentiostatic EIS,8.92999,3.55305,-0.00190826,398.107,0.0254547,-3.53134,0.0254064,0.00156787,2.01114,0.341985,0.00870513,12,0.0301427,3.55305
2,1,Potentiostatic EIS,9.00973,3.55305,-0.00177428,316.228,0.0259864,-4.81711,0.0258946,0.00218222,1.85938,0.35493,0.00922336,9,0.0284605,3.55305
2,1,Potentiostatic EIS,9.08989,3.55304,-0.00181865,251.189,0.0266043,-5.95736,0.0264606,0.00276121,1.68677,0.35927,0.00955812,8,0.0318486,3.55304
2,1,Potentiostatic EIS,9.18137,3.55305,-0.00182731,199.526,0.0272795,-6.84934,0.0270848,0.00325332,1.52331,0.357664,0.00975689,8,0.0400951,3.55305
2,1,Potentiostatic EIS,9.28125,3.55306,-0.00160631,158.489,0.0279833,-7.55823,0.0277401,0.00368074,1.30328,0.352562,0.00986582,8,0.0504766,3.55306
2,1,Potentiostatic EIS,9.39368,3.55306,-0.00145639,125.892,0.028746,-8.10164,0.0284591,0.00405116,1.12359,0.345091,0.00992001,8,0.0635464,3.55306
2,1,Potentiostatic EIS,9.52403,3.55306,-0.00133785,100,0.0295684,-8.51018,0.0292428,0.00437568,0.903532,0.336364,0.00994573,8,0.08,3.55306
2,1,Potentiostatic EIS,9.67601,3.55307,-0.00123169,79.4327,0.0304292,-8.72333,0.0300772,0.00461499,0.76222,0.327088,0.00995303,8,0.100714,3.55307
2,1,Potentiostatic EIS,9.85601,3.55306,-0.00172938,63.0956,0.0312934,-8.76865,0.0309277,0.00477053,0.619532,0.317907,0.00994842,8,0.126792,3.55306
2,1,Potentiostatic EIS,10.0699,3.55306,-0.0014137,50.1186,0.0321746,-8.72808,0.0318021,0.00488235,0.512393,0.303852,0.00977632,8,0.159621,3.55306
2,1,Potentiostatic EIS,10.3284,3.55304,-0.00226677,39.8107,0.0330504,-8.49756,0.0326875,0.00488376,0.41015,0.29657,0.00980173,8,0.200951,3.55304
2,1,Potentiostatic EIS,10.4728,3.55305,-0.00302123,31.6228,0.0338662,-8.21813,0.0335184,0.00484091,0.335664,0.292545,0.00990746,2,0.0632456,3.55305
2,1,Potentiostatic EIS,10.6346,3.55305,-0.00217101,25.1188,0.0347255,-7.71005,0.0344116,0.00465878,0.303528,0.278313,0.00966435,2,0.0796217,3.55305
2,1,Potentiostatic EIS,10.8339,3.55305,-0.00225798,19.9526,0.0354587,-7.19696,0.0351794,0.00444229,0.245971,0.275425,0.00976611,2,0.100238,3.55305
2,1,Potentiostatic EIS,11.081,3.55306,-0.00223103,15.8489,0.0361605,-6.61305,0.0359199,0.00416436,0.242512,0.271789,0.00982801,2,0.126192,3.55306
2,1,Potentiostatic EIS,11.3876,3.55306,-0.00225503,12.5892,0.0367798,-6.01509,0.0365773,0.00385417,0.223542,0.268551,0.00987729,2,0.158866,3.55306
2,1,Potentiostatic EIS,11.7691,3.55306,-0.00219223,9.99998,0.037307,-5.43951,0.037139,0.00353651,0.202185,0.265293,0.00989727,2,0.2,3.55306
2,1,Potentiostatic EIS,12.244,3.55305,-0.00249801,7.94328,0.0377703,-4.88776,0.0376329,0.00321818,0.203657,0.262899,0.00992975,2,0.251785,3.55305
2,1,Potentiostatic EIS,12.8367,3.55306,-0.00246135,6.30957,0.0381424,-4.35773,0.0380321,0.00289819,0.207472,0.260315,0.00992902,2,0.316979,3.55306
2,1,Potentiostatic EIS,13.577,3.55305,-0.00237008,5.01186,0.0384869,-3.9063,0.0383975,0.00262192,0.194174,0.258279,0.00994037,2,0.399053,3.55305
2,1,Potentiostatic EIS,14.5044,3.55306,-0.00236968,3.98106,0.0387711,-3.49796,0.0386989,0.00236554,0.19101,0.256654,0.00995078,2,0.502378,3.55306
2,1,Potentiostatic EIS,15.6689,3.55305,-0.00269295,3.16227,0.0390275,-3.19931,0.0389667,0.00217811,0.207312,0.254943,0.00994978,2,0.632458,3.55305
2,1,Potentiostatic EIS,17.1314,3.55305,-0.00257914,2.51188,0.0392483,-2.89967,0.0391981,0.00198546,0.183625,0.253649,0.0099553,2,0.796216,3.55305
2,1,Potentiostatic EIS,18.9699,3.55306,-0.0022368,1.99526,0.0394325,-2.67014,0.0393897,0.001837,0.198394,0.252519,0.00995745,2,1.00238,3.55306
2,1,Potentiostatic EIS,21.2797,3.55306,-0.0026601,1.58489,0.0396315,-2.50623,0.0395936,0.001733,0.186499,0.251055,0.00994969,2,1.26192,3.55306
2,1,Potentiostatic EIS,24.1837,3.55306,-0.00235036,1.25892,0.0397984,-2.38689,0.0397639,0.00165749,0.210073,0.250293,0.00996128,2,1.58866,3.55306
2,1,Potentiostatic EIS,27.8355,3.55305,-0.00244318,0.999998,0.0399899,-2.30486,0.0399576,0.00160825,0.173971,0.248909,0.00995386,2,2,3.55305
2,1,Potentiostatic EIS,32.4304,3.55306,-0.00272243,0.794327,0.040149,-2.2406,0.0401183,0.00156966,0.19528,0.248018,0.00995766,2,2.51785,3.55306
2,1,Potentiostatic EIS,38.2093,3.55306,-0.00235584,0.630956,0.0402936,-2.23321,0.040263,0.00157012,0.185596,0.247238,0.00996211,2,3.16979,3.55306
2,1,Potentiostatic EIS,45.4829,3.55306,-0.00234464,0.501186,0.0404589,-2.28109,0.0404268,0.00161035,0.221065,0.246146,0.00995879,2,3.99054,3.55306
2,1,Potentiostatic EIS,52.7728,3.55305,-0.00242428,0.5,0.04045,-2.2873,0.0404178,0.00161438,0.224045,0.246131,0.00995601,2,4,3.55305