Folder: feature-extraction-paper-2024/Data/P190_02/EIS_08_P190_02_4

Note: README.md
# feature-extraction-paper-2024
Repository for code used and referenced in 2024 feature extraction paper

File: 2_EIS_08_P190_02_4 20230913 145739.csv
Step number,Repeats,Step name,Elapsed Time  (s),DC Working Electrode (V),DC Current (A),Frequency (Hz),|Z| (Ohms),Phase (deg),Z' (Ohms),-Z" (Ohms),THD (%),Amplitude (A),Amplitude (V),No of Cycles,Duration of Each Frequency (s),IR Compensated DC Working Electrode (V)
2,1,Potentiostatic EIS,0,3.55596,-0.00948052,1000000,2.16741,87.5055,0.0943341,-2.16535,0.922785,0.00463643,0.0100491,1430,0.00143,3.55596
2,1,Potentiostatic EIS,0.50411,3.55585,-0.0118091,630957.375,1.39111,86.4359,0.0864794,-1.38842,0.922064,0.00716967,0.00997383,1355,0.00214753,3.55585
2,1,Potentiostatic EIS,1.05647,3.55573,-0.0144551,398107,0.889762,85.5255,0.0694151,-0.88705,0.990232,0.0111199,0.00989431,1400,0.00351664,3.55573
2,1,Potentiostatic EIS,1.74621,3.55562,-0.0166961,251189,0.571634,84.2178,0.0575907,-0.568726,1.30228,0.0174619,0.00998185,1340,0.00533464,3.55562
2,1,Potentiostatic EIS,2.62194,3.55544,-0.0204042,158489,0.367948,82.7397,0.0465003,-0.364998,1.5278,0.0269986,0.00993414,1360,0.00858102,3.55544
2,1,Potentiostatic EIS,3.88185,3.55523,-0.0246162,100000,0.238508,80.8075,0.0381022,-0.235445,1.84614,0.0417477,0.00995719,1370,0.0137,3.55523
2,1,Potentiostatic EIS,4.9578,3.555,-0.0284673,63095.7,0.15491,77.8543,0.0325928,-0.151442,1.82359,0.0641745,0.0099413,1290,0.0204451,3.555
2,1,Potentiostatic EIS,5.57901,3.55566,-0.0142148,39810.7,0.102002,73.5029,0.0289652,-0.0978029,5.05927,0.0982564,0.0100225,815,0.0204719,3.55566
2,1,Potentiostatic EIS,6.03735,3.55599,-0.00686605,25118.9,0.0686368,66.8689,0.026963,-0.063119,6.39462,0.147667,0.0101356,510,0.0203034,3.55599
2,1,Potentiostatic EIS,6.49644,3.55608,-0.00508834,15848.9,0.0471482,57.831,0.0251026,-0.03991,6.86479,0.212498,0.0100189,320,0.0201906,3.55608
2,1,Potentiostatic EIS,7.03581,3.55609,-0.00409093,9999.98,0.0353755,46.4028,0.0243944,-0.0256191,3.04564,0.281998,0.00997583,307,0.0307001,3.55609
2,1,Potentiostatic EIS,7.45646,3.55614,-0.00337065,6309.57,0.0277451,34.0477,0.0229888,-0.015534,4.03861,0.369122,0.0102413,193,0.0305885,3.55614
2,1,Potentiostatic EIS,7.87582,3.5562,-0.0022562,3981.07,0.0254195,20.4571,0.0238164,-0.00888426,3.78261,0.402334,0.0102271,122,0.0306451,3.5562
2,1,Potentiostatic EIS,8.20977,3.55622,-0.00153619,2511.88,0.0246426,11.157,0.0241769,-0.00476831,3.1893,0.424209,0.0104536,77,0.0306543,3.55622
2,1,Potentiostatic EIS,8.49995,3.55625,-0.000986858,1584.89,0.0247302,4.51135,0.0246536,-0.0019452,2.7715,0.344576,0.00852145,48,0.030286,3.55625
2,1,Potentiostatic EIS,8.74677,3.55626,-0.000738835,999.999,0.0252703,-0.0555154,0.0252703,2.4485e-05,2.34814,0.405704,0.0102523,30,0.03,3.55626
2,1,Potentiostatic EIS,8.99325,3.55625,-0.000749636,630.956,0.0260953,-3.26152,0.026053,0.00148466,2.17749,0.38532,0.010055,19,0.030113,3.55625
2,1,Potentiostatic EIS,9.19653,3.55626,-0.000562829,398.107,0.0271212,-5.62011,0.0269908,0.00265604,2.01245,0.329062,0.00892455,12,0.0301427,3.55626
2,1,Potentiostatic EIS,9.35807,3.55627,2.13496e-05,251.189,0.0283811,-7.42636,0.028143,0.00366831,1.66375,0.340453,0.00966244,8,0.0318486,3.55627
2,1,Potentiostatic EIS,9.54757,3.55626,-9.46486e-05,158.489,0.0298896,-8.69819,0.0295459,0.0045202,1.24511,0.331582,0.00991088,8,0.0504766,3.55626
2,1,Potentiostatic EIS,9.78998,3.55627,-7.7131e-07,100,0.0316328,-9.55265,0.0311941,0.00524958,0.854006,0.315064,0.00996634,8,0.08,3.55627
2,1,Potentiostatic EIS,10.1215,3.55626,-0.000593052,63.0956,0.033593,-9.77724,0.0331051,0.00570471,0.580152,0.296593,0.00996347,8,0.126792,3.55626
2,1,Potentiostatic EIS,10.5952,3.55626,-0.000549796,39.8107,0.0356274,-9.56289,0.0351323,0.00591878,0.378838,0.274551,0.00978155,8,0.200951,3.55626
2,1,Potentiostatic EIS,10.9006,3.55627,-0.00120631,25.1188,0.0376227,-8.87934,0.0371718,0.00580722,0.272019,0.256667,0.00965654,2,0.0796217,3.55627
2,1,Potentiostatic EIS,11.3469,3.55628,-0.000818486,15.8489,0.0394934,-7.88759,0.0391198,0.00541968,0.210123,0.24894,0.00983145,2,0.126192,3.55628
2,1,Potentiostatic EIS,12.0346,3.55626,-0.00127719,9.99998,0.0410764,-6.67061,0.0407983,0.00477148,0.201313,0.241323,0.00991269,2,0.2,3.55626
2,1,Potentiostatic EIS,13.1026,3.55626,-0.0010527,6.30957,0.0423219,-5.45529,0.0421302,0.00402349,0.204517,0.235053,0.0099479,2,0.316979,3.55626
2,1,Potentiostatic EIS,14.7728,3.55627,-0.00110374,3.98106,0.0432546,-4.38288,0.0431281,0.00330557,0.201977,0.230031,0.00994992,2,0.502378,3.55627
2,1,Potentiostatic EIS,17.4,3.55628,-0.00107201,2.51188,0.0439433,-3.55435,0.0438588,0.00272428,0.184017,0.226494,0.00995289,2,0.796216,3.55628
2,1,Potentiostatic EIS,21.548,3.55628,-0.0013937,1.58489,0.0444826,-2.9771,0.0444226,0.00231029,0.195134,0.224001,0.00996416,2,1.26192,3.55628
2,1,Potentiostatic EIS,28.1045,3.55628,-0.00129737,0.999998,0.0449882,-2.61971,0.0449411,0.00205625,0.154941,0.221585,0.0099687,2,2,3.55628
2,1,Potentiostatic EIS,38.4784,3.55629,-0.000982709,0.630956,0.0453847,-2.42162,0.0453442,0.00191762,0.177955,0.219506,0.00996219,2,3.16979,3.55629
2,1,Potentiostatic EIS,54.9081,3.55628,-0.00137735,0.398106,0.0458206,-2.44422,0.0457789,0.0019541,0.162008,0.217558,0.0099686,2,5.02379,3.55628
2,1,Potentiostatic EIS,80.9191,3.55629,-0.00133297,0.251188,0.0460796,-2.63181,0.046031,0.00211586,0.163909,0.216359,0.00996971,2,7.96216,3.55629
2,1,Potentiostatic EIS,122.133,3.55629,-0.000846459,0.158489,0.0464019,-3.00358,0.0463381,0.00243139,0.165342,0.214695,0.00996226,2,12.6192,3.55629
2,1,Potentiostatic EIS,187.437,3.55628,-0.00100656,0.0999997,0.046902,-3.60644,0.0468092,0.00295026,0.1646,0.212623,0.00997243,2,20.0001,3.55628