Folder: feature-extraction-paper-2024/Data/P190_02/EIS_02_P190_02_3

Note: README.md
# feature-extraction-paper-2024
Repository for code used and referenced in 2024 feature extraction paper

File: 2_EIS_02_P190_02_3 20230822 155126.csv
Step number,Repeats,Step name,Elapsed Time  (s),DC Working Electrode (V),DC Current (A),Frequency (Hz),|Z| (Ohms),Phase (deg),Z' (Ohms),-Z" (Ohms),THD (%),Amplitude (A),Amplitude (V),No of Cycles,Duration of Each Frequency (s),IR Compensated DC Working Electrode (V)
2,1,Potentiostatic EIS,0,3.4752,-0.00541909,1000000,1.91735,86.926,0.102821,-1.91459,1.11503,0.005243,0.0100527,1430,0.00143,3.4752
2,1,Potentiostatic EIS,0.249752,3.47513,-0.00726393,794328,1.53959,86.4897,0.0942668,-1.53671,1.28211,0.00649578,0.0100009,1445,0.00181915,3.47513
2,1,Potentiostatic EIS,0.506908,3.47507,-0.00847548,630957.375,1.23233,85.9103,0.0878863,-1.22919,1.15438,0.00808364,0.00996175,1355,0.00214753,3.47507
2,1,Potentiostatic EIS,0.779265,3.47499,-0.0101302,501187.25,0.987921,86.0078,0.0687804,-0.985523,1.21875,0.0100585,0.00993703,1385,0.00276344,3.47499
2,1,Potentiostatic EIS,1.08065,3.47491,-0.0116081,398107,0.790633,85.1913,0.066278,-0.78785,1.08093,0.0126157,0.00997441,1400,0.00351664,3.47491
2,1,Potentiostatic EIS,1.41218,3.47485,-0.0128926,316228,0.631138,84.8499,0.0566538,-0.62859,1.31734,0.0157501,0.00994047,1370,0.00433232,3.47485
2,1,Potentiostatic EIS,1.77755,3.47474,-0.0152535,251189,0.508213,84.0043,0.0530847,-0.505433,1.43549,0.0196073,0.00996471,1340,0.00533464,3.47474
2,1,Potentiostatic EIS,2.22659,3.47464,-0.0167942,199526,0.40667,83.6287,0.0451287,-0.404159,1.62345,0.0244281,0.00993418,1355,0.00679109,3.47464
2,1,Potentiostatic EIS,2.68908,3.47458,-0.0182209,158489,0.327667,82.613,0.0421284,-0.324947,1.65632,0.029657,0.00971782,1360,0.00858102,3.47458
2,1,Potentiostatic EIS,3.27023,3.47442,-0.0211962,125893,0.264881,81.7413,0.0380482,-0.262134,1.96483,0.0376627,0.00997618,1370,0.0108823,3.47442
2,1,Potentiostatic EIS,3.94506,3.47428,-0.0242437,100000,0.212514,80.6596,0.0344911,-0.209696,1.90901,0.046815,0.00994885,1370,0.0137,3.47428
2,1,Potentiostatic EIS,4.92999,3.4742,-0.0247666,79432.8,0.171243,79.3467,0.031657,-0.168291,2.6044,0.0582706,0.00997844,1365,0.0171843,3.4742
2,1,Potentiostatic EIS,5.30836,3.47486,-0.0101051,63095.7,0.138006,77.9459,0.0288203,-0.134963,3.87498,0.0721399,0.00995573,1290,0.0204451,3.47486
2,1,Potentiostatic EIS,5.53929,3.47484,-0.0106043,50118.75,0.111754,76.0364,0.0269669,-0.108452,4.67376,0.0898774,0.0100441,1025,0.0204514,3.47484
2,1,Potentiostatic EIS,5.76642,3.47485,-0.0105716,39810.7,0.090824,73.5948,0.0256512,-0.0871264,5.62518,0.110673,0.0100519,815,0.0204719,3.47485
2,1,Potentiostatic EIS,5.99764,3.47484,-0.0106315,31622.8,0.074332,70.5694,0.0247277,-0.0700984,6.25138,0.135984,0.0101081,645,0.0203967,3.47484
2,1,Potentiostatic EIS,6.23428,3.47517,-0.00374545,25118.9,0.0610247,67.2981,0.0235517,-0.0562969,6.86555,0.166162,0.0101398,510,0.0203034,3.47517
2,1,Potentiostatic EIS,6.46409,3.47522,-0.00250982,19952.6,0.0503866,63.1066,0.0227915,-0.0449373,7.05963,0.201187,0.0101374,405,0.0202981,3.47522
2,1,Potentiostatic EIS,6.68954,3.47525,-0.00192787,15848.9,0.0419249,58.4019,0.0219668,-0.0357093,7.34269,0.239888,0.0100574,320,0.0201906,3.47525
2,1,Potentiostatic EIS,6.92602,3.47527,-0.00152076,12589.2,0.0357191,52.7505,0.0216203,-0.0284327,7.13478,0.28033,0.0100132,255,0.0202554,3.47527
2,1,Potentiostatic EIS,7.23595,3.47552,-0.00042424,9999.98,0.0311941,46.8374,0.021339,-0.0227535,3.16769,0.31982,0.0099765,307,0.0307001,3.47552
2,1,Potentiostatic EIS,7.49104,3.47555,-3.01037e-05,7943.27,0.0277766,41.1089,0.0209286,-0.0182629,3.69604,0.365931,0.0101643,244,0.0307178,3.47555
2,1,Potentiostatic EIS,7.70305,3.47557,0.000316764,6309.57,0.0243777,34.8885,0.0199962,-0.0139436,4.23456,0.376828,0.00918618,193,0.0305885,3.47557
2,1,Potentiostatic EIS,7.91444,3.47556,4.03094e-05,5011.87,0.0229073,26.3212,0.0205323,-0.0101572,4.09067,0.45972,0.0105309,153,0.0305276,3.47556
2,1,Potentiostatic EIS,8.12576,3.47561,0.00144318,3981.07,0.0222108,20.1117,0.0208565,-0.00763724,3.88358,0.463847,0.0103024,122,0.0306451,3.47561
2,1,Potentiostatic EIS,8.3379,3.47564,0.00210823,3162.27,0.0218244,14.9048,0.0210901,-0.00561354,3.58111,0.464175,0.0101304,97,0.0306742,3.47564
2,1,Potentiostatic EIS,8.50554,3.47566,0.00226886,2511.88,0.0216765,10.4581,0.0213164,-0.00393464,3.23746,0.478771,0.0103781,77,0.0306543,3.47566
2,1,Potentiostatic EIS,8.67374,3.47568,0.00228045,1995.26,0.0217103,6.70902,0.0215617,-0.00253636,2.90788,0.47506,0.0103137,61,0.0305725,3.47568
2,1,Potentiostatic EIS,8.84211,3.47568,0.00259911,1584.89,0.0218848,3.5529,0.0218427,-0.0013562,2.72524,0.463561,0.0101449,48,0.030286,3.47568
2,1,Potentiostatic EIS,8.96627,3.47568,0.00276484,1258.92,0.022138,0.988195,0.0221348,-0.000381802,2.51313,0.420936,0.0093187,38,0.0301845,3.47568
2,1,Potentiostatic EIS,9.08936,3.47571,0.00284902,999.999,0.0224995,-1.16787,0.0224949,0.000458578,2.33261,0.458767,0.010322,30,0.03,3.47571
2,1,Potentiostatic EIS,9.21239,3.4757,0.00307088,794.328,0.0229086,-2.93658,0.0228785,0.00117362,2.27598,0.444395,0.0101804,24,0.0302142,3.4757
2,1,Potentiostatic EIS,9.33617,3.47572,0.0034626,630.956,0.0233564,-4.51045,0.0232841,0.00183677,2.21599,0.431587,0.0100803,19,0.030113,3.47572
2,1,Potentiostatic EIS,9.45938,3.47573,0.00397686,501.187,0.0238654,-5.86328,0.0237405,0.00243797,2.14027,0.420971,0.0100466,15,0.029929,3.47573
2,1,Potentiostatic EIS,9.5404,3.47573,0.00381271,398.107,0.0244228,-7.0272,0.0242394,0.0029879,2.10327,0.363395,0.00887515,12,0.0301427,3.47573
2,1,Potentiostatic EIS,9.6204,3.47573,0.00393219,316.228,0.0250398,-8.07841,0.0247913,0.0035188,1.94203,0.374454,0.00937626,9,0.0284605,3.47573
2,1,Potentiostatic EIS,9.70143,3.47573,0.00367311,251.189,0.0257425,-9.0879,0.0254193,0.00406601,1.7735,0.376263,0.00968595,8,0.0318486,3.47573
2,1,Potentiostatic EIS,9.79094,3.47572,0.00374795,199.526,0.0265337,-9.90507,0.0261382,0.00456422,1.61029,0.371768,0.00986438,8,0.0400951,3.47572
2,1,Potentiostatic EIS,9.89048,3.47572,0.00382596,158.489,0.0273724,-10.5967,0.0269056,0.00503364,1.33459,0.363458,0.00994874,8,0.0504766,3.47572
2,1,Potentiostatic EIS,10.0044,3.47572,0.0039453,125.892,0.0283153,-11.2124,0.0277749,0.0055058,1.17533,0.352904,0.00999258,8,0.0635464,3.47572
2,1,Potentiostatic EIS,10.1347,3.47572,0.00376289,100,0.0293328,-11.6334,0.0287302,0.00591495,0.941888,0.34088,0.00999898,8,0.08,3.47572
2,1,Potentiostatic EIS,10.2862,3.47572,0.00376561,79.4327,0.0304372,-11.8857,0.0297847,0.00626885,0.793244,0.328424,0.00999631,8,0.100714,3.47572
2,1,Potentiostatic EIS,10.6098,3.47572,0.00300723,63.0956,0.0315753,-11.9485,0.0308912,0.00653712,0.655016,0.316687,0.0099995,8,0.126792,3.47572
2,1,Potentiostatic EIS,10.8234,3.47572,0.00400894,50.1186,0.0327229,-11.9549,0.0320131,0.00677827,0.531743,0.2994,0.00979721,8,0.159621,3.47572
2,1,Potentiostatic EIS,11.0811,3.4757,0.00283291,39.8107,0.0339083,-11.6955,0.0332043,0.00687358,0.422292,0.289621,0.00982054,8,0.200951,3.4757
2,1,Potentiostatic EIS,11.2251,3.47571,0.00135069,31.6228,0.0350379,-11.4209,0.0343441,0.00693804,0.353999,0.282992,0.00991553,2,0.0632456,3.47571
2,1,Potentiostatic EIS,11.3872,3.47571,0.00287913,25.1188,0.0362331,-10.836,0.0355871,0.00681178,0.294477,0.26669,0.00966289,2,0.0796217,3.47571
2,1,Potentiostatic EIS,11.5868,3.47572,0.00293035,19.9526,0.037353,-10.2815,0.0367532,0.00666693,0.253936,0.261643,0.00977321,2,0.100238,3.47572
2,1,Potentiostatic EIS,11.834,3.47573,0.0028248,15.8489,0.0384133,-9.61301,0.0378739,0.00641474,0.235894,0.255986,0.00983323,2,0.126192,3.47573
2,1,Potentiostatic EIS,12.1403,3.47572,0.00269962,12.5892,0.0393864,-8.96266,0.0389055,0.00613604,0.212641,0.250968,0.00988474,2,0.158866,3.47572
2,1,Potentiostatic EIS,12.5218,3.47573,0.00274569,9.99998,0.0402893,-8.25921,0.0398714,0.00578762,0.218602,0.245919,0.00990792,2,0.2,3.47573
2,1,Potentiostatic EIS,12.9967,3.47572,0.00241513,7.94328,0.0410789,-7.59007,0.040719,0.0054259,0.191859,0.241607,0.00992496,2,0.251785,3.47572
2,1,Potentiostatic EIS,13.5904,3.47573,0.00244815,6.30957,0.0418127,-6.90706,0.0415093,0.00502837,0.209657,0.237638,0.00993631,2,0.316979,3.47573
2,1,Potentiostatic EIS,14.3307,3.47573,0.00247212,5.01186,0.0424397,-6.28529,0.0421846,0.00464626,0.204161,0.234455,0.00995015,2,0.399053,3.47573
2,1,Potentiostatic EIS,15.2584,3.47572,0.00232729,3.98106,0.0430193,-5.74281,0.0428034,0.00430465,0.19447,0.231356,0.00995278,2,0.502378,3.47572
2,1,Potentiostatic EIS,16.4229,3.47572,0.00208974,3.16227,0.0435314,-5.24775,0.0433489,0.00398149,0.201499,0.228899,0.00996428,2,0.632458,3.47572
2,1,Potentiostatic EIS,17.8857,3.47572,0.00190794,2.51188,0.0439943,-4.82568,0.0438384,0.003701,0.195413,0.226258,0.00995409,2,0.796216,3.47572
2,1,Potentiostatic EIS,19.7244,3.47572,0.00213795,1.99526,0.0444135,-4.44507,0.0442799,0.00344219,0.174259,0.22429,0.0099615,2,1.00238,3.47572
2,1,Potentiostatic EIS,22.0344,3.47573,0.00179024,1.58489,0.044792,-4.14352,0.0446749,0.00323645,0.185615,0.22231,0.00995769,2,1.26192,3.47573
2,1,Potentiostatic EIS,24.9394,3.47572,0.00167559,1.25892,0.0451436,-3.91847,0.0450381,0.00308498,0.187829,0.220726,0.00996436,2,1.58866,3.47572
2,1,Potentiostatic EIS,28.592,3.47572,0.00175716,0.999998,0.0454756,-3.7458,0.0453785,0.00297092,0.163323,0.219136,0.00996533,2,2,3.47572
2,1,Potentiostatic EIS,33.1869,3.47572,0.00128673,0.794327,0.0457889,-3.61027,0.045698,0.0028833,0.170218,0.217728,0.00996949,2,2.51785,3.47572
2,1,Potentiostatic EIS,38.9663,3.47571,0.00144159,0.630956,0.0460942,-3.56405,0.0460051,0.00286541,0.199722,0.216279,0.00996922,2,3.16979,3.47571
2,1,Potentiostatic EIS,46.2408,3.47571,0.00142487,0.501186,0.0463987,-3.5268,0.0463108,0.00285423,0.194094,0.214906,0.00997135,2,3.99054,3.47571
2,1,Potentiostatic EIS,53.5297,3.47571,0.00111197,0.5,0.0463795,-3.55506,0.0462903,0.00287589,0.190069,0.214933,0.00996847,2,4,3.47571