Folder: feature-extraction-paper-2024/Data/P190_02/EIS_08_P190_02_1

Note: README.md
# feature-extraction-paper-2024
Repository for code used and referenced in 2024 feature extraction paper

File: 2_EIS_08_P190_02_1 20230913 140407.csv
Step number,Repeats,Step name,Elapsed Time  (s),DC Working Electrode (V),DC Current (A),Frequency (Hz),|Z| (Ohms),Phase (deg),Z' (Ohms),-Z" (Ohms),THD (%),Amplitude (A),Amplitude (V),No of Cycles,Duration of Each Frequency (s),IR Compensated DC Working Electrode (V)
2,1,Potentiostatic EIS,0,3.55744,-0.0131006,1000000,3.49905,88.9105,0.0665309,-3.49842,0.85376,0.00284278,0.00994706,1430,0.00143,3.55744
2,1,Potentiostatic EIS,0.469225,3.55738,-0.0147196,630957.375,2.22665,87.9764,0.0786268,-2.22526,0.838707,0.00445461,0.00991886,1355,0.00214753,3.55738
2,1,Potentiostatic EIS,1.00071,3.55728,-0.0162796,398107,1.4165,87.2618,0.0676695,-1.41488,0.929562,0.00703231,0.00996126,1400,0.00351664,3.55728
2,1,Potentiostatic EIS,1.63755,3.55721,-0.0177035,251189,0.903212,86.3449,0.0575802,-0.901375,0.949849,0.0110437,0.0099748,1340,0.00533464,3.55721
2,1,Potentiostatic EIS,2.51168,3.55709,-0.0197771,158489,0.577911,85.3321,0.0470304,-0.575994,1.16599,0.0172515,0.00996987,1360,0.00858102,3.55709
2,1,Potentiostatic EIS,3.76838,3.55694,-0.0227084,100000,0.370132,84.1314,0.0378452,-0.368192,1.54753,0.026904,0.00995801,1370,0.0137,3.55694
2,1,Potentiostatic EIS,4.69149,3.55677,-0.026052,63095.7,0.238283,82.3825,0.0315865,-0.236181,1.63925,0.0419256,0.00999019,1290,0.0204451,3.55677
2,1,Potentiostatic EIS,5.23662,3.5567,-0.0277817,39810.7,0.154026,79.5245,0.0280042,-0.151459,1.78017,0.0641733,0.00988433,815,0.0204719,3.5567
2,1,Potentiostatic EIS,5.80131,3.55754,-0.00720231,25118.9,0.100689,75.429,0.0253314,-0.0974508,5.68907,0.0999609,0.010065,510,0.0203034,3.55754
2,1,Potentiostatic EIS,6.22639,3.55761,-0.0061181,15848.9,0.0659428,69.3086,0.0232998,-0.0616893,6.97463,0.147873,0.00975131,320,0.0201906,3.55761
2,1,Potentiostatic EIS,6.69381,3.5576,-0.00555168,9999.98,0.045409,60.5113,0.0223526,-0.0395264,3.52363,0.22115,0.0100422,307,0.0307001,3.5576
2,1,Potentiostatic EIS,7.12142,3.5576,-0.00580811,6309.57,0.0321578,49.7029,0.0207981,-0.0245268,4.99852,0.327438,0.0105297,193,0.0305885,3.5576
2,1,Potentiostatic EIS,7.54791,3.55765,-0.00441205,3981.07,0.025952,34.2629,0.0214484,-0.0146108,4.94712,0.39454,0.0102391,122,0.0306451,3.55765
2,1,Potentiostatic EIS,7.88582,3.55767,-0.0040117,2511.88,0.0233333,21.2825,0.021742,-0.00846922,4.02997,0.449337,0.0104845,77,0.0306543,3.55767
2,1,Potentiostatic EIS,8.22228,3.5577,-0.00368306,1584.89,0.0225638,11.0547,0.0221451,-0.0043265,3.15826,0.449831,0.0101499,48,0.030286,3.5577
2,1,Potentiostatic EIS,8.47118,3.55773,-0.0030308,999.999,0.0227568,3.8219,0.0227062,-0.00151686,2.48571,0.452563,0.0102989,30,0.03,3.55773
2,1,Potentiostatic EIS,8.7183,3.55773,-0.00252568,630.956,0.0234468,-1.18303,0.0234418,0.000484087,2.11243,0.430656,0.0100975,19,0.030113,3.55773
2,1,Potentiostatic EIS,8.9225,3.55773,-0.00260085,398.107,0.0244445,-4.68418,0.0243629,0.00199622,2.01342,0.356257,0.00870852,12,0.0301427,3.55773
2,1,Potentiostatic EIS,9.08265,3.55773,-0.00257995,251.189,0.0256781,-7.25008,0.0254728,0.00324058,1.69429,0.37357,0.00959254,8,0.0318486,3.55773
2,1,Potentiostatic EIS,9.27269,3.55773,-0.00216658,158.489,0.0271809,-8.96894,0.0268486,0.00423747,1.31473,0.364379,0.00990415,8,0.0504766,3.55773
2,1,Potentiostatic EIS,9.51559,3.55774,-0.00206382,100,0.0289421,-10.0989,0.0284936,0.00507491,0.920122,0.344617,0.00997392,8,0.08,3.55774
2,1,Potentiostatic EIS,9.84567,3.55773,-0.00247318,63.0956,0.0309112,-10.4497,0.0303985,0.00560644,0.640589,0.322605,0.0099721,8,0.126792,3.55773
2,1,Potentiostatic EIS,10.3201,3.55773,-0.00292313,39.8107,0.0329301,-10.2626,0.0324032,0.00586684,0.408795,0.298517,0.00983019,8,0.200951,3.55773
2,1,Potentiostatic EIS,10.6255,3.55774,-0.0029682,25.1188,0.0349452,-9.55484,0.0344604,0.00580061,0.274557,0.276703,0.00966926,2,0.0796217,3.55774
2,1,Potentiostatic EIS,11.0722,3.55773,-0.00324849,15.8489,0.0368031,-8.52394,0.0363966,0.00545505,0.216213,0.267089,0.00982971,2,0.126192,3.55773
2,1,Potentiostatic EIS,11.7598,3.55774,-0.00333877,9.99998,0.0384179,-7.21949,0.0381134,0.00482801,0.192245,0.258042,0.00991344,2,0.2,3.55774
2,1,Potentiostatic EIS,12.8278,3.55775,-0.00321181,6.30957,0.0396995,-5.91384,0.0394882,0.00409035,0.247386,0.250515,0.00994533,2,0.316979,3.55775
2,1,Potentiostatic EIS,14.4978,3.55775,-0.00353638,3.98106,0.0406611,-4.75707,0.040521,0.00337207,0.204651,0.244644,0.00994747,2,0.502378,3.55775
2,1,Potentiostatic EIS,17.1251,3.55774,-0.00319928,2.51188,0.0413555,-3.87385,0.041261,0.00279397,0.187759,0.240789,0.00995796,2,0.796216,3.55774
2,1,Potentiostatic EIS,21.2734,3.55774,-0.00334992,1.58489,0.0419168,-3.21422,0.0418509,0.00235025,0.170478,0.237681,0.00996285,2,1.26192,3.55774
2,1,Potentiostatic EIS,27.8296,3.55774,-0.00304124,0.999998,0.042357,-2.82263,0.0423056,0.00208584,0.170797,0.235285,0.00996598,2,2,3.55774
2,1,Potentiostatic EIS,38.2028,3.55774,-0.00277678,0.630956,0.0427692,-2.64126,0.0427238,0.00197091,0.145387,0.2328,0.00995667,2,3.16979,3.55774
2,1,Potentiostatic EIS,54.6318,3.55774,-0.00269486,0.398106,0.0431316,-2.63399,0.043086,0.00198214,0.192565,0.231081,0.00996688,2,5.02379,3.55774
2,1,Potentiostatic EIS,80.6432,3.55773,-0.00258184,0.251188,0.0435597,-2.81344,0.0435072,0.00213808,0.176756,0.228721,0.009963,2,7.96216,3.55773
2,1,Potentiostatic EIS,121.858,3.55773,-0.00191532,0.158489,0.0440089,-3.19874,0.0439404,0.00245568,0.170853,0.226418,0.00996442,2,12.6192,3.55773
2,1,Potentiostatic EIS,187.161,3.55774,-0.00154112,0.0999997,0.0445527,-3.78618,0.0444554,0.00294196,0.184261,0.223772,0.00996965,2,20.0001,3.55774