Folder: feature-extraction-paper-2024/Data/P190_02/EIS_02_P190_02_2

Note: README.md
# feature-extraction-paper-2024
Repository for code used and referenced in 2024 feature extraction paper

File: 2_EIS_02_P190_02_2 20230822 154817.csv
Step number,Repeats,Step name,Elapsed Time  (s),DC Working Electrode (V),DC Current (A),Frequency (Hz),|Z| (Ohms),Phase (deg),Z' (Ohms),-Z" (Ohms),THD (%),Amplitude (A),Amplitude (V),No of Cycles,Duration of Each Frequency (s),IR Compensated DC Working Electrode (V)
2,1,Potentiostatic EIS,0,3.47542,-0.00805707,1000000,1.17145,84.4078,0.114155,-1.16588,0.803279,0.00858715,0.0100597,1430,0.00143,3.47542
2,1,Potentiostatic EIS,0.265514,3.47526,-0.0114665,794328,0.94537,84.0685,0.0976945,-0.940309,1.04704,0.010587,0.0100087,1445,0.00181915,3.47526
2,1,Potentiostatic EIS,0.548063,3.47516,-0.0135012,630957.375,0.759436,83.4931,0.0860613,-0.754544,0.9783,0.0131203,0.00996415,1355,0.00214753,3.47516
2,1,Potentiostatic EIS,0.840752,3.47503,-0.0163104,501187.25,0.61206,83.3076,0.0713293,-0.607889,1.26818,0.0163553,0.0100105,1385,0.00276344,3.47503
2,1,Potentiostatic EIS,1.14605,3.47494,-0.0181653,398107,0.49352,82.3932,0.0653294,-0.489177,1.45374,0.0202087,0.00997339,1400,0.00351664,3.47494
2,1,Potentiostatic EIS,1.50933,3.47482,-0.0202209,316228,0.396313,81.8675,0.0560639,-0.392328,1.66201,0.0251336,0.00996077,1370,0.00433232,3.47482
2,1,Potentiostatic EIS,1.91205,3.4747,-0.0227756,251189,0.321389,80.7304,0.0517695,-0.317192,1.74803,0.0311032,0.00999623,1340,0.00533464,3.4747
2,1,Potentiostatic EIS,2.35155,3.47456,-0.0252441,199526,0.258638,80.0688,0.0446064,-0.254763,1.94528,0.0384074,0.00993365,1355,0.00679109,3.47456
2,1,Potentiostatic EIS,2.87351,3.47443,-0.0285399,158489,0.209714,78.675,0.0411823,-0.205631,2.10242,0.0474439,0.00994967,1360,0.00858102,3.47443
2,1,Potentiostatic EIS,3.52057,3.47427,-0.030584,125893,0.170894,77.4097,0.037251,-0.166784,2.14667,0.0582737,0.00995862,1370,0.0108823,3.47427
2,1,Potentiostatic EIS,4.61121,3.47479,-0.0190629,100000,0.138842,76.0373,0.0335013,-0.134739,3.1552,0.0698235,0.00969416,1370,0.0137,3.47479
2,1,Potentiostatic EIS,5.26921,3.47492,-0.0159415,79432.8,0.113196,74.0465,0.0311127,-0.108836,5.56028,0.0886641,0.0100364,1365,0.0171843,3.47492
2,1,Potentiostatic EIS,5.50205,3.47489,-0.0165682,63095.7,0.0921978,71.9212,0.0286113,-0.087646,4.58251,0.108223,0.00997789,1290,0.0204451,3.47489
2,1,Potentiostatic EIS,5.74346,3.4749,-0.0163879,50118.75,0.0758709,69.3518,0.0267542,-0.0709972,5.12203,0.131867,0.0100049,1025,0.0204514,3.4749
2,1,Potentiostatic EIS,5.98343,3.47491,-0.015953,39810.7,0.0624853,66.2896,0.0251262,-0.0572109,5.68905,0.16012,0.0100052,815,0.0204719,3.47491
2,1,Potentiostatic EIS,6.23325,3.4749,-0.0161185,31622.8,0.052169,62.3614,0.0242008,-0.046216,6.11748,0.192626,0.0100492,645,0.0203967,3.4749
2,1,Potentiostatic EIS,6.47423,3.47521,-0.0090082,25118.9,0.043782,58.1025,0.0231345,-0.0371707,6.48655,0.229858,0.0100637,510,0.0203034,3.47521
2,1,Potentiostatic EIS,6.72962,3.4753,-0.00781557,19952.6,0.0371346,53.0462,0.0223242,-0.029675,6.29793,0.263733,0.00979298,405,0.0202981,3.4753
2,1,Potentiostatic EIS,6.95308,3.47534,-0.00718805,15848.9,0.0320042,47.6678,0.0215525,-0.0236592,6.27069,0.310478,0.00993654,320,0.0201906,3.47534
2,1,Potentiostatic EIS,7.1754,3.47541,-0.00536685,12589.2,0.0284356,41.6424,0.0212501,-0.0188949,6.08895,0.353193,0.0100433,255,0.0202554,3.47541
2,1,Potentiostatic EIS,7.48034,3.47564,-0.00390438,9999.98,0.0258734,35.7803,0.0209902,-0.0151277,2.5654,0.385262,0.00996806,307,0.0307001,3.47564
2,1,Potentiostatic EIS,7.73742,3.47568,-0.00342536,7943.27,0.0239411,30.6499,0.0205965,-0.012205,2.97448,0.428626,0.0102618,244,0.0307178,3.47568
2,1,Potentiostatic EIS,7.99307,3.47571,-0.00289374,6309.57,0.0216862,24.7708,0.0196908,-0.00908629,3.33387,0.467537,0.0101391,193,0.0305885,3.47571
2,1,Potentiostatic EIS,8.2061,3.47573,-0.0025702,5011.87,0.0211533,17.3538,0.0201905,-0.00630943,3.31291,0.494337,0.0104569,153,0.0305276,3.47573
2,1,Potentiostatic EIS,8.4177,3.47579,-0.00130729,3981.07,0.0210451,12.5602,0.0205414,-0.00457659,3.19837,0.490486,0.0103223,122,0.0306451,3.47579
2,1,Potentiostatic EIS,8.63286,3.47582,-0.00043663,3162.27,0.021023,8.64517,0.0207841,-0.00316007,3.08105,0.482125,0.0101357,97,0.0306742,3.47582
2,1,Potentiostatic EIS,8.80243,3.47582,-0.000571199,2511.88,0.0210925,5.39608,0.020999,-0.00198354,2.80742,0.488277,0.010299,77,0.0306543,3.47582
2,1,Potentiostatic EIS,8.96927,3.47582,-0.000965259,1995.26,0.0212764,2.59901,0.0212545,-0.000964797,2.64041,0.485058,0.0103203,61,0.0305725,3.47582
2,1,Potentiostatic EIS,9.13776,3.47585,3.72609e-05,1584.89,0.0215461,0.233123,0.0215459,-8.76658e-05,2.43504,0.470464,0.0101367,48,0.030286,3.47585
2,1,Potentiostatic EIS,9.26263,3.47586,7.60155e-05,1258.92,0.0218601,-1.71573,0.0218503,0.000654504,2.4585,0.429298,0.0093845,38,0.0301845,3.47586
2,1,Potentiostatic EIS,9.38823,3.47587,0.000357494,999.999,0.0222618,-3.35315,0.0222237,0.0013021,2.36719,0.462092,0.010287,30,0.03,3.47587
2,1,Potentiostatic EIS,9.51278,3.47588,0.00070529,794.328,0.0227032,-4.78839,0.022624,0.00189517,2.31759,0.447186,0.0101526,24,0.0302142,3.47588
2,1,Potentiostatic EIS,9.63579,3.47588,0.000469776,630.956,0.0231827,-6.05542,0.0230533,0.00244555,2.25786,0.434479,0.0100724,19,0.030113,3.47588
2,1,Potentiostatic EIS,9.7614,3.47589,0.00105503,501.187,0.0237271,-7.13464,0.0235434,0.00294695,2.18779,0.423424,0.0100466,15,0.029929,3.47589
2,1,Potentiostatic EIS,9.84253,3.47588,0.000783593,398.107,0.0243118,-8.16752,0.0240652,0.00345393,2.13341,0.367435,0.00893302,12,0.0301427,3.47588
2,1,Potentiostatic EIS,9.92254,3.47589,0.0009578,316.228,0.0249449,-9.04706,0.0246346,0.00392248,1.96328,0.377915,0.00942705,9,0.0284605,3.47589
2,1,Potentiostatic EIS,10.0041,3.47589,0.000978068,251.189,0.0256887,-9.88121,0.0253076,0.00440834,1.77554,0.37872,0.00972883,8,0.0318486,3.47589
2,1,Potentiostatic EIS,10.0934,3.47588,0.00101378,199.526,0.0264939,-10.5894,0.0260427,0.00486877,1.60542,0.373387,0.00989246,8,0.0400951,3.47588
2,1,Potentiostatic EIS,10.194,3.47588,0.000899363,158.489,0.0273677,-11.1912,0.0268473,0.00531163,1.38114,0.3644,0.00997278,8,0.0504766,3.47588
2,1,Potentiostatic EIS,10.3075,3.4759,0.00136625,125.892,0.028325,-11.6794,0.0277385,0.00573398,1.17963,0.353399,0.01001,8,0.0635464,3.4759
2,1,Potentiostatic EIS,10.4384,3.47589,0.00147557,100,0.0293568,-12.0376,0.0287113,0.00612247,0.934287,0.341049,0.0100121,8,0.08,3.47589
2,1,Potentiostatic EIS,10.5913,3.47589,0.00143196,79.4327,0.0304556,-12.2118,0.0297665,0.00644216,0.778456,0.32844,0.0100028,8,0.100714,3.47589
2,1,Potentiostatic EIS,10.9143,3.4759,0.000328171,63.0956,0.0316282,-12.2187,0.0309117,0.00669392,0.643299,0.3165,0.0100103,8,0.126792,3.4759
2,1,Potentiostatic EIS,11.1281,3.47589,0.00133244,50.1186,0.0327684,-12.1724,0.0320317,0.00690937,0.529274,0.299262,0.00980633,8,0.159621,3.47589
2,1,Potentiostatic EIS,11.3883,3.47588,0.000439355,39.8107,0.0339547,-11.8695,0.0332287,0.00698389,0.413828,0.289325,0.00982393,8,0.200951,3.47588
2,1,Potentiostatic EIS,11.5317,3.4759,-0.00139021,31.6228,0.0351066,-11.5892,0.0343909,0.00705267,0.353253,0.282703,0.00992488,2,0.0632456,3.4759
2,1,Potentiostatic EIS,11.6939,3.4759,0.000178467,25.1188,0.0363066,-10.9764,0.0356424,0.00691291,0.260359,0.26631,0.00966873,2,0.0796217,3.4759
2,1,Potentiostatic EIS,11.8936,3.47588,-7.22888e-05,19.9526,0.0374332,-10.3792,0.0368207,0.00674401,0.24279,0.261167,0.00977621,2,0.100238,3.47588
2,1,Potentiostatic EIS,12.1409,3.47589,7.86324e-06,15.8489,0.0384975,-9.73809,0.0379428,0.00651164,0.208549,0.25545,0.00983415,2,0.126192,3.47589
2,1,Potentiostatic EIS,12.4473,3.47589,5.2842e-05,12.5892,0.0394815,-9.03488,0.0389917,0.00620001,0.192359,0.250191,0.00987792,2,0.158866,3.47589
2,1,Potentiostatic EIS,12.8289,3.4759,-3.25777e-06,9.99998,0.0403591,-8.31932,0.0399344,0.00583955,0.204439,0.245475,0.00990713,2,0.2,3.4759
2,1,Potentiostatic EIS,13.3042,3.4759,-0.000252999,7.94328,0.0411758,-7.6294,0.0408113,0.00546671,0.193559,0.24105,0.00992542,2,0.251785,3.4759
2,1,Potentiostatic EIS,13.8976,3.47591,-0.000201101,6.30957,0.0418984,-6.97298,0.0415885,0.00508652,0.190769,0.237105,0.00993432,2,0.316979,3.47591
2,1,Potentiostatic EIS,14.6384,3.4759,-0.000119914,5.01186,0.0425558,-6.36027,0.0422939,0.00471432,0.195333,0.233841,0.0099513,2,0.399053,3.4759
2,1,Potentiostatic EIS,15.5663,3.4759,-0.000286488,3.98106,0.0431133,-5.78496,0.0428938,0.00434561,0.196327,0.230796,0.00995037,2,0.502378,3.4759
2,1,Potentiostatic EIS,16.7312,3.4759,-0.00051592,3.16227,0.0436372,-5.29036,0.0434513,0.00402349,0.177759,0.228228,0.00995924,2,0.632458,3.4759
2,1,Potentiostatic EIS,18.194,3.4759,-0.000564369,2.51188,0.044114,-4.83395,0.0439571,0.00371741,0.17628,0.225773,0.00995976,2,0.796216,3.4759
2,1,Potentiostatic EIS,20.0326,3.4759,-0.000438419,1.99526,0.0445201,-4.4825,0.0443839,0.00347945,0.165041,0.223861,0.00996631,2,1.00238,3.4759
2,1,Potentiostatic EIS,22.343,3.4759,-0.000727942,1.58489,0.0449143,-4.19632,0.0447939,0.00328657,0.184535,0.221817,0.00996276,2,1.26192,3.4759
2,1,Potentiostatic EIS,25.2478,3.4759,-0.000555219,1.25892,0.0452451,-3.93391,0.0451385,0.00310407,0.182765,0.2202,0.00996296,2,1.58866,3.4759
2,1,Potentiostatic EIS,28.9003,3.4759,-0.000471388,0.999998,0.0455896,-3.74259,0.0454924,0.00297582,0.18525,0.218557,0.00996394,2,2,3.4759
2,1,Potentiostatic EIS,33.4952,3.47589,-0.000857254,0.794327,0.0458879,-3.61729,0.0457964,0.00289514,0.160389,0.217107,0.0099626,2,2.51785,3.47589
2,1,Potentiostatic EIS,39.274,3.4759,-0.000644039,0.630956,0.0462283,-3.57871,0.0461382,0.00288555,0.173265,0.215651,0.0099692,2,3.16979,3.4759
2,1,Potentiostatic EIS,46.5482,3.4759,-0.000557944,0.501186,0.0464987,-3.53443,0.0464103,0.00286657,0.206152,0.21437,0.00996793,2,3.99054,3.4759
2,1,Potentiostatic EIS,53.8386,3.47591,-0.000582319,0.5,0.0464988,-3.55467,0.0464093,0.00288297,0.205103,0.214216,0.00996078,2,4,3.47591