Folder: feature-extraction-paper-2024/Data/P190_02/EIS_06_P190_02_3

Note: README.md
# feature-extraction-paper-2024
Repository for code used and referenced in 2024 feature extraction paper

File: 2_EIS_06_P190_02_3 20230829 113536.csv
Step number,Repeats,Step name,Elapsed Time  (s),DC Working Electrode (V),DC Current (A),Frequency (Hz),|Z| (Ohms),Phase (deg),Z' (Ohms),-Z" (Ohms),THD (%),Amplitude (A),Amplitude (V),No of Cycles,Duration of Each Frequency (s),IR Compensated DC Working Electrode (V)
2,1,Potentiostatic EIS,0,3.55503,-0.0141138,1000000,1.2341,84.4019,0.120386,-1.22821,1.16246,0.00814362,0.01005,1430,0.00143,3.55503
2,1,Potentiostatic EIS,0.245298,3.55491,-0.0170067,794328,0.998224,84.0429,0.103599,-0.992834,1.21222,0.00972605,0.00970846,1445,0.00181915,3.55491
2,1,Potentiostatic EIS,0.527142,3.55481,-0.0191883,630957.375,0.801563,83.445,0.0915041,-0.796323,1.37466,0.012467,0.00999309,1355,0.00214753,3.55481
2,1,Potentiostatic EIS,0.818449,3.55472,-0.0215267,501187.25,0.647355,83.3186,0.0753185,-0.642959,1.4465,0.0154378,0.00999375,1385,0.00276344,3.55472
2,1,Potentiostatic EIS,1.12078,3.55459,-0.0242388,398107,0.520646,82.3872,0.0689743,-0.516057,1.68634,0.0191773,0.00998462,1400,0.00351664,3.55459
2,1,Potentiostatic EIS,1.48696,3.55449,-0.0265822,316228,0.419247,81.8107,0.0597193,-0.414972,1.80324,0.0237591,0.00996094,1370,0.00433232,3.55449
2,1,Potentiostatic EIS,1.883,3.55437,-0.029505,251189,0.339652,80.6668,0.0550836,-0.335156,2.02627,0.0293892,0.00998214,1340,0.00533464,3.55437
2,1,Potentiostatic EIS,2.32706,3.55425,-0.031995,199526,0.273131,80.0961,0.0469775,-0.26906,2.00525,0.0363048,0.00991597,1355,0.00679109,3.55425
2,1,Potentiostatic EIS,2.82977,3.55409,-0.0361132,158489,0.221462,78.7998,0.0430164,-0.217244,2.20211,0.044921,0.00994833,1360,0.00858102,3.55409
2,1,Potentiostatic EIS,3.53498,3.55393,-0.0386352,125893,0.180158,77.4191,0.0392414,-0.175832,2.34091,0.0554245,0.00998516,1370,0.0108823,3.55393
2,1,Potentiostatic EIS,4.62504,3.55459,-0.0219555,100000,0.146198,76.1108,0.035094,-0.141923,3.86745,0.0682228,0.00997404,1370,0.0137,3.55459
2,1,Potentiostatic EIS,5.21882,3.55458,-0.0222006,79432.8,0.119126,74.0601,0.0327153,-0.114545,5.89525,0.0818646,0.00975226,1365,0.0171843,3.55458
2,1,Potentiostatic EIS,5.45028,3.55457,-0.0225644,63095.7,0.097144,72.0111,0.0300013,-0.0923953,4.71175,0.102812,0.00998765,1290,0.0204451,3.55457
2,1,Potentiostatic EIS,5.68914,3.55457,-0.0222737,50118.75,0.0795921,69.366,0.028048,-0.0744863,5.28525,0.125204,0.0099653,1025,0.0204514,3.55457
2,1,Potentiostatic EIS,5.92916,3.55454,-0.0224555,39810.7,0.0656564,66.0453,0.0266575,-0.0600012,5.73411,0.152077,0.00998479,815,0.0204719,3.55454
2,1,Potentiostatic EIS,6.15643,3.55456,-0.0223466,31622.8,0.0548731,62.0892,0.0256859,-0.0484901,6.1877,0.177878,0.00976188,645,0.0203967,3.55456
2,1,Potentiostatic EIS,6.38387,3.55487,-0.0143105,25118.9,0.0462586,57.7208,0.0247042,-0.0391096,6.37079,0.211662,0.00979007,510,0.0203034,3.55487
2,1,Potentiostatic EIS,6.60828,3.55495,-0.0120897,19952.6,0.0393099,52.6193,0.0238654,-0.0312364,6.6296,0.252617,0.00993028,405,0.0202981,3.55495
2,1,Potentiostatic EIS,6.83699,3.55501,-0.0115701,15848.9,0.0338996,47.2102,0.0230283,-0.0248773,6.36461,0.296666,0.0100569,320,0.0201906,3.55501
2,1,Potentiostatic EIS,7.05756,3.55505,-0.0100446,12589.2,0.030247,41.2002,0.0227582,-0.0199235,5.9666,0.33187,0.0100381,255,0.0202554,3.55505
2,1,Potentiostatic EIS,7.36227,3.55509,-0.00820679,9999.98,0.0275618,35.3421,0.0224825,-0.0159433,2.57809,0.361885,0.00997419,307,0.0307001,3.55509
2,1,Potentiostatic EIS,7.61833,3.55511,-0.00797627,7943.27,0.0255768,30.1942,0.0221067,-0.0128634,2.98684,0.39967,0.0102223,244,0.0307178,3.55511
2,1,Potentiostatic EIS,7.83059,3.55516,-0.00682533,6309.57,0.0232362,24.553,0.0211351,-0.00965544,3.45804,0.385096,0.00894816,193,0.0305885,3.55516
2,1,Potentiostatic EIS,8.04348,3.55516,-0.0065632,5011.87,0.0226795,17.5127,0.0216283,-0.00682466,3.33521,0.461892,0.0104755,153,0.0305276,3.55516
2,1,Potentiostatic EIS,8.25453,3.55521,-0.00568691,3981.07,0.0225373,12.8729,0.0219709,-0.00502105,3.2433,0.455482,0.0102653,122,0.0306451,3.55521
2,1,Potentiostatic EIS,8.42267,3.55525,-0.0043007,3162.27,0.022474,9.17399,0.0221865,-0.00358309,3.2025,0.384629,0.00864413,97,0.0306742,3.55525
2,1,Potentiostatic EIS,8.59174,3.55525,-0.00446539,2511.88,0.022533,6.01864,0.0224088,-0.00236263,2.88741,0.466211,0.0105051,77,0.0306543,3.55525
2,1,Potentiostatic EIS,8.75933,3.55528,-0.00389184,1995.26,0.0226687,3.40896,0.0226286,-0.00134794,2.64332,0.453837,0.0102879,61,0.0305725,3.55528
2,1,Potentiostatic EIS,8.92676,3.55529,-0.00380071,1584.89,0.0228952,1.1592,0.0228905,-0.000463181,2.47302,0.441829,0.0101158,48,0.030286,3.55529
2,1,Potentiostatic EIS,9.05084,3.55529,-0.00386737,1258.92,0.0231787,-0.624277,0.0231773,0.000252543,2.47665,0.420997,0.00975815,38,0.0301845,3.55529
2,1,Potentiostatic EIS,9.17434,3.55529,-0.00361998,999.999,0.0235193,-2.12566,0.0235031,0.00087236,2.38582,0.436962,0.010277,30,0.03,3.55529
2,1,Potentiostatic EIS,9.29897,3.55532,-0.00296007,794.328,0.0239077,-3.41521,0.0238652,0.00142421,2.3329,0.424511,0.0101491,24,0.0302142,3.55532
2,1,Potentiostatic EIS,9.42249,3.55533,-0.00308629,630.956,0.0243348,-4.53049,0.0242588,0.0019222,2.26317,0.413614,0.0100652,19,0.030113,3.55533
2,1,Potentiostatic EIS,9.54663,3.55532,-0.0027424,501.187,0.0248032,-5.46426,0.0246905,0.00236188,2.17279,0.404648,0.0100366,15,0.029929,3.55532
2,1,Potentiostatic EIS,9.62662,3.55532,-0.00273364,398.107,0.0253146,-6.34041,0.0251597,0.00279562,2.12043,0.351054,0.00888679,12,0.0301427,3.55532
2,1,Potentiostatic EIS,9.70674,3.55533,-0.00262012,316.228,0.0258582,-7.0192,0.0256644,0.00315992,1.93423,0.361708,0.0093531,9,0.0284605,3.55533
2,1,Potentiostatic EIS,9.78734,3.55531,-0.00288789,251.189,0.0264768,-7.69087,0.0262386,0.00354334,1.7294,0.364331,0.00964629,8,0.0318486,3.55531
2,1,Potentiostatic EIS,9.87641,3.55531,-0.00282648,199.526,0.0271301,-8.2468,0.0268495,0.00389146,1.54767,0.361487,0.00980716,8,0.0400951,3.55531
2,1,Potentiostatic EIS,9.97611,3.55531,-0.00287465,158.489,0.027832,-8.65274,0.0275152,0.0041872,1.34566,0.355598,0.00989701,8,0.0504766,3.55531
2,1,Potentiostatic EIS,10.0891,3.55532,-0.0028298,125.892,0.0285754,-9.01886,0.0282221,0.00447946,1.15088,0.347622,0.00993343,8,0.0635464,3.55532
2,1,Potentiostatic EIS,10.2174,3.5553,-0.00294687,100,0.0294034,-9.24442,0.0290215,0.00472355,0.925558,0.338478,0.0099524,8,0.08,3.5553
2,1,Potentiostatic EIS,10.3697,3.55532,-0.0025435,79.4327,0.0302567,-9.35289,0.0298545,0.00491716,0.761662,0.328998,0.0099544,8,0.100714,3.55532
2,1,Potentiostatic EIS,10.5494,3.55532,-0.00278435,63.0956,0.0311441,-9.30297,0.0307344,0.00503459,0.630158,0.319449,0.00994894,8,0.126792,3.55532
2,1,Potentiostatic EIS,10.9425,3.55527,-0.0033837,50.1186,0.032039,-9.13638,0.0316326,0.00508732,0.489083,0.312148,0.0100009,8,0.159621,3.55527
2,1,Potentiostatic EIS,11.2007,3.5553,-0.00349959,39.8107,0.0329097,-8.89441,0.032514,0.0050883,0.411612,0.29782,0.00980115,8,0.200951,3.5553
2,1,Potentiostatic EIS,11.3428,3.5553,-0.00317208,31.6228,0.0338116,-8.48907,0.0334412,0.00499129,0.323834,0.293203,0.0099136,2,0.0632456,3.5553
2,1,Potentiostatic EIS,11.5045,3.55531,-0.00332118,25.1188,0.0345897,-7.98872,0.034254,0.00480721,0.288221,0.279203,0.00965758,2,0.0796217,3.55531
2,1,Potentiostatic EIS,11.7038,3.55532,-0.00335794,19.9526,0.0353736,-7.48342,0.0350723,0.00460703,0.262411,0.275834,0.00975719,2,0.100238,3.55532
2,1,Potentiostatic EIS,11.9509,3.55532,-0.00343745,15.8489,0.0360748,-6.87063,0.0358158,0.00431555,0.233621,0.272399,0.00982672,2,0.126192,3.55532
2,1,Potentiostatic EIS,12.2576,3.55532,-0.00340692,12.5892,0.0366989,-6.26126,0.03648,0.00400246,0.229393,0.268949,0.00987011,2,0.158866,3.55532
2,1,Potentiostatic EIS,12.639,3.55532,-0.00333676,9.99998,0.0372452,-5.62702,0.0370658,0.00365198,0.208274,0.265806,0.00989998,2,0.2,3.55532
2,1,Potentiostatic EIS,13.1138,3.55532,-0.00349388,7.94328,0.0377366,-5.03679,0.0375909,0.0033131,0.201873,0.262848,0.00991899,2,0.251785,3.55532
2,1,Potentiostatic EIS,13.7068,3.55532,-0.00351335,6.30957,0.0381312,-4.52149,0.0380125,0.003006,0.194361,0.26069,0.00994041,2,0.316979,3.55532
2,1,Potentiostatic EIS,14.4494,3.55532,-0.0035828,5.01186,0.0384702,-4.05419,0.038374,0.00271984,0.197987,0.258334,0.00993817,2,0.399053,3.55532
2,1,Potentiostatic EIS,15.377,3.55532,-0.0035062,3.98106,0.038776,-3.6506,0.0386973,0.00246894,0.199499,0.256577,0.00994906,2,0.502378,3.55532
2,1,Potentiostatic EIS,16.5415,3.55532,-0.00359169,3.16227,0.039015,-3.29098,0.0389506,0.00223972,0.175295,0.254952,0.00994695,2,0.632458,3.55532
2,1,Potentiostatic EIS,18.0041,3.55531,-0.00390369,2.51188,0.0392384,-2.99079,0.0391849,0.00204728,0.198145,0.253531,0.00994813,2,0.796216,3.55531
2,1,Potentiostatic EIS,19.842,3.55532,-0.0036115,1.99526,0.0394564,-2.76846,0.0394103,0.00190574,0.209168,0.252243,0.00995259,2,1.00238,3.55532
2,1,Potentiostatic EIS,22.1516,3.55532,-0.00366808,1.58489,0.0396279,-2.57073,0.039588,0.00177741,0.202552,0.251273,0.00995743,2,1.26192,3.55532
2,1,Potentiostatic EIS,25.0557,3.55531,-0.00395932,1.25892,0.0398262,-2.42582,0.0397905,0.00168568,0.195844,0.24983,0.00994977,2,1.58866,3.55531
2,1,Potentiostatic EIS,28.7076,3.55531,-0.00354897,0.999998,0.0399909,-2.35628,0.0399571,0.00164415,0.18996,0.249083,0.00996105,2,2,3.55531
2,1,Potentiostatic EIS,33.302,3.55531,-0.00351576,0.794327,0.0401639,-2.31161,0.0401312,0.00161998,0.174292,0.24804,0.00996223,2,2.51785,3.55531
2,1,Potentiostatic EIS,39.0809,3.55532,-0.00390266,0.630956,0.0403044,-2.26531,0.0402729,0.0015931,0.195843,0.246929,0.00995232,2,3.16979,3.55532
2,1,Potentiostatic EIS,46.3556,3.55531,-0.00349419,0.501186,0.0404126,-2.3393,0.0403789,0.00164953,0.125134,0.246161,0.00994802,2,3.99054,3.55531
2,1,Potentiostatic EIS,53.646,3.55531,-0.00344162,0.5,0.0404251,-2.33793,0.0403915,0.00164907,0.13107,0.246166,0.00995126,2,4,3.55531