Folder: feature-extraction-paper-2024/Data/P190/P190_02/EIS_06_P190_02_2

Note: README.md
# feature-extraction-paper-2024
Repository for code used and referenced in 2024 feature extraction paper

File: 2_EIS_06_P190_02_2 20230829 113010.csv
Step number,Repeats,Step name,Elapsed Time  (s),DC Working Electrode (V),DC Current (A),Frequency (Hz),|Z| (Ohms),Phase (deg),Z' (Ohms),-Z" (Ohms),THD (%),Amplitude (A),Amplitude (V),No of Cycles,Duration of Each Frequency (s),IR Compensated DC Working Electrode (V)
2,1,Potentiostatic EIS,0,3.55684,-0.0118117,1000000,1.05625,82.7888,0.132589,-1.0479,0.986735,0.00959443,0.0101342,1430,0.00143,3.55684
2,1,Potentiostatic EIS,0.26501,3.55667,-0.0151072,794328,0.857208,82.2217,0.116014,-0.849321,1.18199,0.011674,0.0100071,1445,0.00181915,3.55667
2,1,Potentiostatic EIS,0.545704,3.55653,-0.0176623,630957.375,0.690824,81.5674,0.101307,-0.683356,1.23666,0.0144611,0.00999012,1355,0.00214753,3.55653
2,1,Potentiostatic EIS,0.835453,3.55642,-0.0199662,501187.25,0.55898,81.2604,0.0849332,-0.55249,1.42037,0.0178916,0.0100011,1385,0.00276344,3.55642
2,1,Potentiostatic EIS,1.1427,3.5563,-0.0222702,398107,0.45092,80.045,0.0779523,-0.444131,1.61399,0.0220631,0.00994883,1400,0.00351664,3.5563
2,1,Potentiostatic EIS,1.49828,3.55617,-0.0243997,316228,0.363806,79.1538,0.0684588,-0.357307,1.90012,0.0273553,0.00995205,1370,0.00433232,3.55617
2,1,Potentiostatic EIS,1.89494,3.55604,-0.0271741,251189,0.296039,77.6542,0.0632963,-0.289193,1.99144,0.0337573,0.00999352,1340,0.00533464,3.55604
2,1,Potentiostatic EIS,2.33553,3.55589,-0.0298597,199526,0.239295,76.5045,0.0558442,-0.232688,2.26515,0.0415095,0.00993298,1355,0.00679109,3.55589
2,1,Potentiostatic EIS,2.83148,3.55573,-0.0325688,158489,0.195343,74.4441,0.0523869,-0.188187,2.33452,0.0510422,0.00997082,1360,0.00858102,3.55573
2,1,Potentiostatic EIS,3.8193,3.55634,-0.0201005,125893,0.160168,72.466,0.0482541,-0.152727,3.29483,0.0622238,0.00996631,1370,0.0108823,3.55634
2,1,Potentiostatic EIS,4.43012,3.55633,-0.0202983,100000,0.131569,70.1701,0.0446318,-0.123767,3.76943,0.0760898,0.0100111,1370,0.0137,3.55633
2,1,Potentiostatic EIS,5.08663,3.55631,-0.0205042,79432.8,0.108363,67.2068,0.0419807,-0.0999011,5.77855,0.092622,0.0100368,1365,0.0171843,3.55631
2,1,Potentiostatic EIS,5.32503,3.55632,-0.0204328,63095.7,0.0897785,64.0155,0.0393345,-0.080703,4.6049,0.111319,0.00999404,1290,0.0204451,3.55632
2,1,Potentiostatic EIS,5.57198,3.55633,-0.0197316,50118.75,0.0755532,60.0119,0.037763,-0.0654388,4.98168,0.132666,0.0100231,1025,0.0204514,3.55633
2,1,Potentiostatic EIS,5.8295,3.55636,-0.0193723,39810.7,0.063972,55.6718,0.0360759,-0.0528294,5.20635,0.156389,0.0100047,815,0.0204719,3.55636
2,1,Potentiostatic EIS,6.06984,3.55638,-0.0187571,31622.8,0.05518,50.5883,0.0350332,-0.0426323,5.47331,0.176549,0.00974195,645,0.0203967,3.55638
2,1,Potentiostatic EIS,6.29322,3.55669,-0.0124519,25118.9,0.0483862,45.1892,0.0341011,-0.034327,5.56002,0.203725,0.00985776,510,0.0203034,3.55669
2,1,Potentiostatic EIS,6.5212,3.55679,-0.0106271,19952.6,0.0431101,39.5102,0.0332599,-0.0274273,5.4971,0.234012,0.0100882,405,0.0202981,3.55679
2,1,Potentiostatic EIS,6.74412,3.55688,-0.00897353,15848.9,0.0391173,33.9221,0.0324594,-0.02183,5.17866,0.257065,0.0100558,320,0.0201906,3.55688
2,1,Potentiostatic EIS,6.97792,3.55692,-0.00847659,12589.2,0.0365644,28.6259,0.032095,-0.0175176,4.82714,0.273864,0.0100136,255,0.0202554,3.55692
2,1,Potentiostatic EIS,7.32743,3.55693,-0.0068449,9999.98,0.0348512,23.7142,0.0319085,-0.0140162,2.1673,0.286891,0.00999849,307,0.0307001,3.55693
2,1,Potentiostatic EIS,7.53833,3.55695,-0.00648142,7943.27,0.0335058,19.7836,0.0315282,-0.0113406,2.58337,0.296324,0.00992855,244,0.0307178,3.55695
2,1,Potentiostatic EIS,7.75147,3.55699,-0.00583995,6309.57,0.0317156,15.2828,0.0305941,-0.00835971,2.92106,0.330651,0.0104868,193,0.0305885,3.55699
2,1,Potentiostatic EIS,7.96342,3.55702,-0.00541266,5011.87,0.0316572,10.5865,0.0311184,-0.00581605,3.01006,0.324042,0.0102583,153,0.0305276,3.55702
2,1,Potentiostatic EIS,8.13071,3.55704,-0.00492887,3981.07,0.0317373,7.60869,0.0314579,-0.00420223,3.04024,0.297205,0.00943248,122,0.0306451,3.55704
2,1,Potentiostatic EIS,8.3001,3.55705,-0.00460491,3162.27,0.0318168,5.25235,0.0316832,-0.00291259,2.94452,0.330009,0.0104998,97,0.0306742,3.55705
2,1,Potentiostatic EIS,8.46942,3.55708,-0.00413317,2511.88,0.0319424,3.32071,0.0318888,-0.00185026,2.87363,0.321148,0.0102583,77,0.0306543,3.55708
2,1,Potentiostatic EIS,8.59679,3.55709,-0.00410629,1995.26,0.0321255,1.61607,0.0321128,-0.000906002,2.72724,0.275046,0.00883599,61,0.0305725,3.55709
2,1,Potentiostatic EIS,8.72054,3.5571,-0.00380566,1584.89,0.0323786,0.171525,0.0323784,-9.69307e-05,2.64841,0.322691,0.0104483,48,0.030286,3.5571
2,1,Potentiostatic EIS,8.84483,3.55709,-0.00401994,1258.92,0.032678,-1.01337,0.0326729,0.000577932,2.60411,0.314731,0.0102848,38,0.0301845,3.55709
2,1,Potentiostatic EIS,8.96843,3.55711,-0.00373187,999.999,0.0330358,-2.0178,0.0330153,0.00116319,2.53871,0.307372,0.0101543,30,0.03,3.55711
2,1,Potentiostatic EIS,9.09175,3.55711,-0.00377983,794.328,0.0334465,-2.90076,0.0334036,0.0016926,2.44763,0.301001,0.0100674,24,0.0302142,3.55711
2,1,Potentiostatic EIS,9.17266,3.55711,-0.00382175,630.956,0.0338711,-3.61905,0.0338036,0.00213803,2.37864,0.252553,0.00855423,19,0.030113,3.55711
2,1,Potentiostatic EIS,9.25277,3.55712,-0.00351567,501.187,0.0343617,-4.29632,0.0342651,0.00257419,2.21937,0.252824,0.00868746,15,0.029929,3.55712
2,1,Potentiostatic EIS,9.33254,3.55712,-0.00331715,398.107,0.0348926,-4.92244,0.0347639,0.00299403,2.04695,0.263446,0.00919232,12,0.0301427,3.55712
2,1,Potentiostatic EIS,9.41144,3.55712,-0.00330771,316.228,0.0354382,-5.4454,0.0352782,0.00336298,1.81292,0.268515,0.00951568,9,0.0284605,3.55712
2,1,Potentiostatic EIS,9.49322,3.55712,-0.00333947,251.189,0.0360576,-5.95092,0.0358633,0.00373833,1.57164,0.269347,0.00971203,8,0.0318486,3.55712
2,1,Potentiostatic EIS,9.58166,3.55712,-0.00323777,199.526,0.0367733,-6.32886,0.0365492,0.0040537,1.37153,0.267525,0.00983776,8,0.0400951,3.55712
2,1,Potentiostatic EIS,9.68136,3.55712,-0.00306498,158.489,0.0374742,-6.67774,0.03722,0.00435768,1.12878,0.264125,0.00989786,8,0.0504766,3.55712
2,1,Potentiostatic EIS,9.79491,3.55712,-0.00315222,125.892,0.0382558,-6.92856,0.0379764,0.00461486,0.947833,0.259784,0.00993826,8,0.0635464,3.55712
2,1,Potentiostatic EIS,9.92422,3.55711,-0.00332173,100,0.0390889,-7.12051,0.0387875,0.00484534,0.755055,0.254621,0.00995288,8,0.08,3.55711
2,1,Potentiostatic EIS,10.0758,3.55712,-0.0033607,79.4327,0.0399653,-7.21312,0.039649,0.00501805,0.58292,0.24926,0.00996174,8,0.100714,3.55712
2,1,Potentiostatic EIS,10.2538,3.55713,-0.00333241,63.0956,0.0408692,-7.20668,0.0405463,0.00512699,0.495496,0.243676,0.00995885,8,0.126792,3.55713
2,1,Potentiostatic EIS,10.4679,3.55714,-0.00284525,50.1186,0.0417565,-7.1114,0.0414353,0.0051694,0.398857,0.234178,0.00977846,8,0.159621,3.55714
2,1,Potentiostatic EIS,10.7271,3.55711,-0.00359381,39.8107,0.0426501,-6.9308,0.0423385,0.00514661,0.324038,0.230021,0.00981044,8,0.200951,3.55711
2,1,Potentiostatic EIS,10.87,3.55711,-0.003648,31.6228,0.0435588,-6.63981,0.0432666,0.00503659,0.254698,0.227677,0.00991725,2,0.0632456,3.55711
2,1,Potentiostatic EIS,11.0325,3.55712,-0.00373201,25.1188,0.0443543,-6.2803,0.0440881,0.00485204,0.249871,0.217761,0.00965857,2,0.0796217,3.55712
2,1,Potentiostatic EIS,11.2325,3.55712,-0.0036622,19.9526,0.0451445,-5.90636,0.0449049,0.0046455,0.207205,0.216422,0.00977025,2,0.100238,3.55712
2,1,Potentiostatic EIS,11.4795,3.55713,-0.00354917,15.8489,0.0458564,-5.45473,0.0456487,0.00435907,0.195406,0.214489,0.00983567,2,0.126192,3.55713
2,1,Potentiostatic EIS,11.7859,3.55712,-0.00360804,12.5892,0.0465236,-5.00117,0.0463465,0.00405575,0.222346,0.212456,0.00988424,2,0.158866,3.55712
2,1,Potentiostatic EIS,12.1668,3.55711,-0.00375683,9.99998,0.0470851,-4.4985,0.0469401,0.00369303,0.20328,0.21045,0.00990907,2,0.2,3.55711
2,1,Potentiostatic EIS,12.6416,3.55712,-0.00358041,7.94328,0.0475756,-4.05518,0.0474565,0.00336441,0.166948,0.208708,0.00992945,2,0.251785,3.55712
2,1,Potentiostatic EIS,13.2346,3.55711,-0.00389565,6.30957,0.0479888,-3.62388,0.0478929,0.0030332,0.173343,0.20723,0.00994471,2,0.316979,3.55711
2,1,Potentiostatic EIS,13.9747,3.55711,-0.00388762,5.01186,0.048345,-3.25335,0.0482671,0.00274363,0.186421,0.205885,0.00995353,2,0.399053,3.55711
2,1,Potentiostatic EIS,14.9015,3.55711,-0.00375277,3.98106,0.0486501,-2.914,0.0485872,0.00247322,0.152681,0.204825,0.00996476,2,0.502378,3.55711
2,1,Potentiostatic EIS,16.0663,3.55711,-0.00391846,3.16227,0.0488919,-2.65493,0.0488395,0.00226471,0.174147,0.203688,0.00995868,2,0.632458,3.55711
2,1,Potentiostatic EIS,17.5284,3.55711,-0.0038823,2.51188,0.0491088,-2.41272,0.0490653,0.00206735,0.187285,0.203001,0.00996914,2,0.796216,3.55711
2,1,Potentiostatic EIS,19.3675,3.5571,-0.00389715,1.99526,0.0492428,-2.2314,0.0492055,0.00191729,0.150635,0.202507,0.00997196,2,1.00238,3.5571
2,1,Potentiostatic EIS,21.6776,3.5571,-0.00394402,1.58489,0.0494237,-2.09145,0.0493908,0.0018037,0.157944,0.201772,0.0099723,2,1.26192,3.5571
2,1,Potentiostatic EIS,24.5824,3.5571,-0.00415192,1.25892,0.0494359,-1.98508,0.0494062,0.00171242,0.221737,0.201581,0.00996502,2,1.58866,3.5571
2,1,Potentiostatic EIS,28.2344,3.5571,-0.00377422,0.999998,0.0493908,-1.90633,0.0493635,0.00164301,0.166088,0.201867,0.00997034,2,2,3.5571
2,1,Potentiostatic EIS,32.8289,3.5571,-0.00387634,0.794327,0.049559,-1.88183,0.0495323,0.00162743,0.178289,0.201104,0.00996652,2,2.51785,3.5571
2,1,Potentiostatic EIS,38.608,3.5571,-0.00397787,0.630956,0.0497215,-1.86887,0.0496951,0.00162153,0.173456,0.200594,0.00997384,2,3.16979,3.5571
2,1,Potentiostatic EIS,45.882,3.5571,-0.00363754,0.501186,0.0497272,-1.93394,0.0496989,0.00167815,0.206307,0.200538,0.00997221,2,3.99054,3.5571
2,1,Potentiostatic EIS,53.1719,3.55709,-0.00370459,0.5,0.0495593,-1.89434,0.0495322,0.00163825,0.226424,0.201227,0.0099726,2,4,3.55709