Folder: feature-extraction-paper-2024/Data/P190/P190_02/EIS_08_P190_02_3

Note: README.md
# feature-extraction-paper-2024
Repository for code used and referenced in 2024 feature extraction paper

File: 2_EIS_08_P190_02_3 20230913 144618.csv
Step number,Repeats,Step name,Elapsed Time  (s),DC Working Electrode (V),DC Current (A),Frequency (Hz),|Z| (Ohms),Phase (deg),Z' (Ohms),-Z" (Ohms),THD (%),Amplitude (A),Amplitude (V),No of Cycles,Duration of Each Frequency (s),IR Compensated DC Working Electrode (V)
2,1,Potentiostatic EIS,0,3.55664,-0.00926374,1000000,2.96223,88.1078,0.0978111,-2.96062,0.624754,0.00334242,0.00990103,1430,0.00143,3.55664
2,1,Potentiostatic EIS,0.482317,3.55652,-0.011272,630957.375,1.88983,87.175,0.0931413,-1.88754,0.653533,0.00527922,0.00997688,1355,0.00214753,3.55652
2,1,Potentiostatic EIS,1.03105,3.55645,-0.0122824,398107,1.20466,86.316,0.0774039,-1.20217,0.85269,0.00827478,0.00996833,1400,0.00351664,3.55645
2,1,Potentiostatic EIS,1.80798,3.55634,-0.0139741,251189,0.768252,84.923,0.0679859,-0.765238,1.00302,0.012762,0.00980465,1340,0.00533464,3.55634
2,1,Potentiostatic EIS,2.67297,3.55619,-0.0163302,158489,0.492449,83.4298,0.056346,-0.489215,1.0943,0.0202219,0.0099583,1360,0.00858102,3.55619
2,1,Potentiostatic EIS,4.04233,3.55607,-0.0181814,100000,0.316549,81.2231,0.0483015,-0.312842,1.2891,0.0312214,0.00988321,1370,0.0137,3.55607
2,1,Potentiostatic EIS,4.95602,3.55593,-0.0207809,63095.7,0.205015,77.9052,0.0429567,-0.200464,1.49792,0.0482136,0.00988452,1290,0.0204451,3.55593
2,1,Potentiostatic EIS,5.57501,3.55582,-0.0218838,39810.7,0.134459,72.7,0.0399847,-0.128376,1.70887,0.0740384,0.00995513,815,0.0204719,3.55582
2,1,Potentiostatic EIS,6.1751,3.55675,-0.00598555,25118.9,0.0908087,65.1979,0.0380929,-0.0824327,5.64623,0.110935,0.0100738,510,0.0203034,3.55675
2,1,Potentiostatic EIS,6.62432,3.5568,-0.0051512,15848.9,0.0634442,55.3385,0.0360824,-0.0521845,6.41581,0.153351,0.00972953,320,0.0201906,3.5568
2,1,Potentiostatic EIS,7.13698,3.5568,-0.00407834,9999.98,0.0486673,43.1029,0.0355333,-0.0332549,2.95937,0.205469,0.00999963,307,0.0307001,3.5568
2,1,Potentiostatic EIS,7.56034,3.55684,-0.0035587,6309.57,0.0397791,30.7338,0.0341922,-0.0203291,3.94276,0.260561,0.0103649,193,0.0305885,3.55684
2,1,Potentiostatic EIS,7.9394,3.55689,-0.00270333,3981.07,0.0369758,18.7046,0.0350229,-0.0118577,3.71795,0.279567,0.0103372,122,0.0306451,3.55689
2,1,Potentiostatic EIS,8.27549,3.5569,-0.00236044,2511.88,0.0360347,10.6734,0.0354113,-0.00667403,3.23134,0.28326,0.0102072,77,0.0306543,3.5569
2,1,Potentiostatic EIS,8.52338,3.5569,-0.0023294,1584.89,0.0360285,5.02004,0.0358903,-0.00315265,2.7012,0.288124,0.0103807,48,0.030286,3.5569
2,1,Potentiostatic EIS,8.77148,3.55692,-0.00198115,999.999,0.0365193,1.14813,0.036512,-0.000731749,2.41546,0.277472,0.0101331,30,0.03,3.55692
2,1,Potentiostatic EIS,8.97555,3.55692,-0.00205522,630.956,0.0373111,-1.53363,0.0372977,0.000998585,2.2236,0.23095,0.00861699,19,0.030113,3.55692
2,1,Potentiostatic EIS,9.13471,3.55693,-0.00176321,398.107,0.0382757,-3.49071,0.0382046,0.00233048,1.88206,0.24031,0.00919801,12,0.0301427,3.55693
2,1,Potentiostatic EIS,9.29402,3.55692,-0.00186596,251.189,0.0395061,-5.0044,0.0393555,0.00344621,1.46528,0.246114,0.009723,8,0.0318486,3.55692
2,1,Potentiostatic EIS,9.48106,3.55692,-0.00170137,158.489,0.0409824,-6.13801,0.0407475,0.00438199,1.03728,0.24173,0.00990668,8,0.0504766,3.55692
2,1,Potentiostatic EIS,9.7233,3.55693,-0.0017477,100,0.0426916,-6.95491,0.0423775,0.00516945,0.664504,0.233234,0.00995716,8,0.08,3.55693
2,1,Potentiostatic EIS,10.056,3.55693,-0.00175139,63.0956,0.0446468,-7.30382,0.0442845,0.00567598,0.473084,0.223205,0.00996539,8,0.126792,3.55693
2,1,Potentiostatic EIS,10.5267,3.55691,-0.00215374,39.8107,0.046683,-7.28835,0.0463058,0.00592235,0.290541,0.210523,0.00982786,8,0.200951,3.55691
2,1,Potentiostatic EIS,10.8325,3.55694,-0.00211402,25.1188,0.0487247,-6.86612,0.0483753,0.00582503,0.221567,0.198607,0.009677,2,0.0796217,3.55694
2,1,Potentiostatic EIS,11.2796,3.55694,-0.0020607,15.8489,0.0505987,-6.12153,0.0503102,0.00539573,0.185759,0.194668,0.00984995,2,0.126192,3.55694
2,1,Potentiostatic EIS,11.967,3.55694,-0.00210117,9.99998,0.0522158,-5.20892,0.0520001,0.00474054,0.179716,0.189985,0.00992022,2,0.2,3.55694
2,1,Potentiostatic EIS,13.0345,3.55693,-0.00234832,6.30957,0.0534544,-4.25792,0.0533069,0.0039688,0.164235,0.186121,0.00994898,2,0.316979,3.55693
2,1,Potentiostatic EIS,14.6986,3.55693,-0.00231292,3.98106,0.054348,-3.43543,0.0542503,0.00325673,0.146495,0.183298,0.0099619,2,0.502378,3.55693
2,1,Potentiostatic EIS,17.3275,3.55694,-0.00231614,2.51188,0.0550436,-2.79917,0.0549779,0.00268807,0.190677,0.181032,0.00996462,2,0.796216,3.55694
2,1,Potentiostatic EIS,21.4765,3.55693,-0.00250136,1.58489,0.0555502,-2.32675,0.0555044,0.00225524,0.163116,0.179595,0.00997654,2,1.26192,3.55693
2,1,Potentiostatic EIS,28.034,3.55694,-0.00230538,0.999998,0.0559229,-2.07411,0.0558863,0.00202397,0.16597,0.178383,0.00997569,2,2,3.55694
2,1,Potentiostatic EIS,38.408,3.55694,-0.00229049,0.630956,0.0562547,-1.94865,0.0562222,0.00191287,0.163721,0.177372,0.009978,2,3.16979,3.55694
2,1,Potentiostatic EIS,54.8369,3.55694,-0.00227481,0.398106,0.0566715,-1.95713,0.0566385,0.00193543,0.152673,0.175909,0.00996901,2,5.02379,3.55694
2,1,Potentiostatic EIS,80.8476,3.55694,-0.00198305,0.251188,0.0569437,-2.105,0.0569052,0.00209159,0.175794,0.175132,0.00997264,2,7.96216,3.55694
2,1,Potentiostatic EIS,122.064,3.55695,-0.00162228,0.158489,0.0571954,-2.41341,0.0571446,0.00240846,0.152467,0.174284,0.00996826,2,12.6192,3.55695
2,1,Potentiostatic EIS,187.367,3.55696,-0.00217231,0.0999997,0.0580451,-2.90411,0.0579706,0.00294083,0.829825,0.171855,0.009975,2,20.0001,3.55696