Folder: feature-extraction-paper-2024/Data/P190/P190_02/EIS_02_P190_02_4

Note: README.md
# feature-extraction-paper-2024
Repository for code used and referenced in 2024 feature extraction paper

File: 2_EIS_02_P190_02_4 20230822 155507.csv
Step number,Repeats,Step name,Elapsed Time  (s),DC Working Electrode (V),DC Current (A),Frequency (Hz),|Z| (Ohms),Phase (deg),Z' (Ohms),-Z" (Ohms),THD (%),Amplitude (A),Amplitude (V),No of Cycles,Duration of Each Frequency (s),IR Compensated DC Working Electrode (V)
2,1,Potentiostatic EIS,0,3.47444,-0.00796507,1000000,1.63777,86.072,0.112192,-1.63392,0.916676,0.00613906,0.010054,1430,0.00143,3.47444
2,1,Potentiostatic EIS,0.248195,3.47435,-0.0099202,794328,1.31864,85.5998,0.101169,-1.31476,1.14333,0.00759397,0.0100137,1445,0.00181915,3.47435
2,1,Potentiostatic EIS,0.510656,3.47429,-0.0112346,630957.375,1.05481,85.1143,0.0898368,-1.05097,1.06573,0.00938214,0.00989643,1355,0.00214753,3.47429
2,1,Potentiostatic EIS,0.809006,3.4742,-0.0125969,501187.25,0.846471,85.0589,0.0729082,-0.843325,1.09357,0.0117842,0.00997497,1385,0.00276344,3.4742
2,1,Potentiostatic EIS,1.11224,3.47413,-0.0139593,398107,0.67927,84.1184,0.0696073,-0.675694,1.09406,0.01467,0.00996491,1400,0.00351664,3.47413
2,1,Potentiostatic EIS,1.44059,3.47406,-0.0152431,316228,0.543443,83.5711,0.0608489,-0.540025,1.30215,0.0182863,0.00993755,1370,0.00433232,3.47406
2,1,Potentiostatic EIS,1.80793,3.47397,-0.0166445,251189,0.438731,82.5774,0.0566783,-0.435054,1.46284,0.0227749,0.00999205,1340,0.00533464,3.47397
2,1,Potentiostatic EIS,2.258,3.47389,-0.0181401,199526,0.351248,82.0202,0.0487619,-0.347847,1.72784,0.0282639,0.00992771,1355,0.00679109,3.47389
2,1,Potentiostatic EIS,2.75519,3.4738,-0.0199416,158489,0.283797,80.7791,0.0454761,-0.28013,1.7668,0.0350745,0.00995404,1360,0.00858102,3.4738
2,1,Potentiostatic EIS,3.3335,3.47369,-0.0220564,125893,0.230181,79.5278,0.0418374,-0.226347,1.83997,0.0433591,0.00998047,1370,0.0108823,3.47369
2,1,Potentiostatic EIS,4.00969,3.47355,-0.0246371,100000,0.185345,78.1761,0.0379781,-0.181412,1.99513,0.0538191,0.00997512,1370,0.0137,3.47355
2,1,Potentiostatic EIS,5.00055,3.47341,-0.0259537,79432.8,0.150509,76.4769,0.0351947,-0.146336,2.93594,0.0663671,0.00998885,1365,0.0171843,3.47341
2,1,Potentiostatic EIS,5.36318,3.47406,-0.0129715,63095.7,0.121915,74.5856,0.0324048,-0.117529,4.00414,0.0817317,0.0099643,1290,0.0204451,3.47406
2,1,Potentiostatic EIS,5.5904,3.47408,-0.0131042,50118.75,0.0993323,71.9761,0.0307348,-0.0944578,4.75859,0.100411,0.009974,1025,0.0204514,3.47408
2,1,Potentiostatic EIS,5.81803,3.47407,-0.0133498,39810.7,0.0813433,69.0275,0.0291143,-0.0759545,5.43716,0.122669,0.00997824,815,0.0204719,3.47407
2,1,Potentiostatic EIS,6.059,3.47405,-0.0132286,31622.8,0.0673839,65.334,0.0281212,-0.0612355,6.10583,0.149577,0.0100792,645,0.0203967,3.47405
2,1,Potentiostatic EIS,6.28708,3.47438,-0.0067025,25118.9,0.056075,61.1657,0.0270437,-0.0491227,6.48271,0.179789,0.0100816,510,0.0203034,3.47438
2,1,Potentiostatic EIS,6.50904,3.47446,-0.0052058,19952.6,0.0470406,56.2172,0.0261568,-0.0390979,6.58774,0.214927,0.0101105,405,0.0202981,3.47446
2,1,Potentiostatic EIS,6.73408,3.47449,-0.00500442,15848.9,0.0401722,50.7156,0.0254358,-0.0310938,6.61501,0.25029,0.0100549,320,0.0201906,3.47449
2,1,Potentiostatic EIS,6.95945,3.47452,-0.00408571,12589.2,0.0353752,44.7903,0.0251054,-0.0249223,6.33569,0.283538,0.0100302,255,0.0202554,3.47452
2,1,Potentiostatic EIS,7.31116,3.47476,-0.00278654,9999.98,0.0318518,38.698,0.0248588,-0.0199142,2.77367,0.314207,0.010008,307,0.0307001,3.47476
2,1,Potentiostatic EIS,7.52349,3.4748,-0.00227781,7943.27,0.0291969,33.2154,0.0244266,-0.0159937,3.36703,0.291486,0.00851048,244,0.0307178,3.4748
2,1,Potentiostatic EIS,7.73644,3.4748,-0.00243229,6309.57,0.0264452,27.1039,0.0235411,-0.0120486,3.621,0.377349,0.0099791,193,0.0305885,3.4748
2,1,Potentiostatic EIS,7.94804,3.47482,-0.0022236,5011.87,0.0255862,19.9108,0.0240568,-0.00871354,3.57044,0.406363,0.0103973,153,0.0305276,3.47482
2,1,Potentiostatic EIS,8.15989,3.47483,-0.00177999,3981.07,0.0252655,14.9003,0.0244159,-0.00649673,3.4351,0.404389,0.0102171,122,0.0306451,3.47483
2,1,Potentiostatic EIS,8.32746,3.47487,-0.000972034,3162.27,0.0250714,10.8472,0.0246235,-0.0047182,3.28778,0.375852,0.00942316,97,0.0306742,3.47487
2,1,Potentiostatic EIS,8.49663,3.47488,-0.000958467,2511.88,0.0250463,7.39521,0.024838,-0.00322378,2.96978,0.416454,0.0104306,77,0.0306543,3.47488
2,1,Potentiostatic EIS,8.66425,3.47487,-0.00119701,1995.26,0.0251536,4.47425,0.0250769,-0.00196226,2.71228,0.406437,0.0102233,61,0.0305725,3.47487
2,1,Potentiostatic EIS,8.78765,3.47489,-0.000795611,1584.89,0.0253845,2.00023,0.0253691,-0.000886008,2.69413,0.349629,0.00887518,48,0.030286,3.47489
2,1,Potentiostatic EIS,8.91128,3.47488,-0.000826483,1258.92,0.0256888,0.00837003,0.0256888,-3.75274e-06,2.44517,0.404208,0.0103836,38,0.0301845,3.47488
2,1,Potentiostatic EIS,9.03539,3.47489,-0.000867354,999.999,0.0260889,-1.67641,0.0260778,0.000763222,2.40086,0.392865,0.0102494,30,0.03,3.47489
2,1,Potentiostatic EIS,9.15957,3.47492,-0.000314128,794.328,0.0264888,-3.04883,0.0264513,0.00140886,2.33828,0.382653,0.010136,24,0.0302142,3.47492
2,1,Potentiostatic EIS,9.28336,3.47491,-0.000458341,630.956,0.0269408,-4.26011,0.0268664,0.00200128,2.26132,0.373,0.0100489,19,0.030113,3.47491
2,1,Potentiostatic EIS,9.40622,3.47493,0.000359244,501.187,0.0274251,-5.33828,0.0273061,0.00255152,2.16046,0.365551,0.0100253,15,0.029929,3.47493
2,1,Potentiostatic EIS,9.48563,3.47492,4.08475e-05,398.107,0.0279726,-6.30422,0.0278034,0.0030716,2.09399,0.322293,0.00901536,12,0.0301427,3.47492
2,1,Potentiostatic EIS,9.56407,3.47493,0.000123056,316.228,0.0285798,-7.20187,0.0283543,0.00358292,1.85169,0.330397,0.00944269,9,0.0284605,3.47493
2,1,Potentiostatic EIS,9.64599,3.47492,0.000254738,251.189,0.0292518,-8.05232,0.0289634,0.00409752,1.69422,0.331387,0.00969368,8,0.0318486,3.47492
2,1,Potentiostatic EIS,9.73517,3.47493,0.000340086,199.526,0.0300326,-8.75921,0.0296823,0.00457343,1.46982,0.327686,0.00984125,8,0.0400951,3.47493
2,1,Potentiostatic EIS,9.8358,3.47492,2.3771e-05,158.489,0.0308601,-9.38677,0.0304469,0.00503323,1.2545,0.321427,0.00991928,8,0.0504766,3.47492
2,1,Potentiostatic EIS,9.94876,3.47493,0.000128085,125.892,0.0317812,-9.91808,0.0313063,0.005474,1.09367,0.313185,0.00995342,8,0.0635464,3.47493
2,1,Potentiostatic EIS,10.0782,3.47492,0.000116065,100,0.0328025,-10.328,0.0322711,0.00588096,0.87492,0.303779,0.00996472,8,0.08,3.47492
2,1,Potentiostatic EIS,10.2299,3.47492,0.000249569,79.4327,0.033858,-10.5742,0.033283,0.00621321,0.714148,0.294256,0.00996291,8,0.100714,3.47492
2,1,Potentiostatic EIS,10.4096,3.47492,0.000105501,63.0956,0.0349682,-10.6331,0.0343678,0.00645231,0.575973,0.284653,0.00995382,8,0.126792,3.47492
2,1,Potentiostatic EIS,10.6236,3.47492,0.000707324,50.1186,0.036119,-10.6658,0.035495,0.00668489,0.501693,0.270539,0.00977159,8,0.159621,3.47492
2,1,Potentiostatic EIS,10.8808,3.4749,-0.00037245,39.8107,0.0372707,-10.4607,0.0366513,0.00676691,0.383524,0.262846,0.00979647,8,0.200951,3.4749
2,1,Potentiostatic EIS,11.0238,3.47491,-0.00174109,31.6228,0.0383765,-10.2545,0.0377635,0.00683184,0.771556,0.25797,0.00990011,2,0.0632456,3.47491
2,1,Potentiostatic EIS,11.1855,3.47491,-0.000692402,25.1188,0.039573,-9.7604,0.0390002,0.00670875,0.724985,0.244184,0.00966293,2,0.0796217,3.47491
2,1,Potentiostatic EIS,11.3847,3.47491,-0.000553668,19.9526,0.0406644,-9.30668,0.0401292,0.00657621,0.75585,0.240196,0.0097674,2,0.100238,3.47491
2,1,Potentiostatic EIS,11.6319,3.47492,-0.000320138,15.8489,0.0417115,-8.75595,0.0412254,0.00634958,0.766955,0.235672,0.0098302,2,0.126192,3.47492
2,1,Potentiostatic EIS,11.9385,3.47491,-0.000684134,12.5892,0.0426675,-8.14872,0.0422367,0.00604783,0.55122,0.23131,0.0098694,2,0.158866,3.47491
2,1,Potentiostatic EIS,12.3199,3.47491,-0.00065926,9.99998,0.0435858,-7.57028,0.0432059,0.00574209,0.242809,0.2271,0.00989832,2,0.2,3.47491
2,1,Potentiostatic EIS,12.7949,3.47493,-0.000701047,7.94328,0.0443782,-6.94932,0.0440521,0.00536937,0.249501,0.223751,0.00992961,2,0.251785,3.47493
2,1,Potentiostatic EIS,13.3886,3.47491,-0.000847239,6.30957,0.0451147,-6.36258,0.0448368,0.00499961,0.215649,0.220291,0.00993839,2,0.316979,3.47491
2,1,Potentiostatic EIS,14.129,3.47493,-0.000618391,5.01186,0.0457575,-5.8494,0.0455193,0.00466333,0.211786,0.217294,0.00994281,2,0.399053,3.47493
2,1,Potentiostatic EIS,15.0565,3.47492,-0.000814206,3.98106,0.0463586,-5.33263,0.046158,0.00430846,0.210866,0.214608,0.00994895,2,0.502378,3.47492
2,1,Potentiostatic EIS,16.2222,3.47492,-0.00101041,3.16227,0.0468509,-4.88892,0.0466805,0.00399283,0.197451,0.212368,0.00994965,2,0.632458,3.47492
2,1,Potentiostatic EIS,17.6853,3.47492,-0.000833205,2.51188,0.0473278,-4.49412,0.0471823,0.00370846,0.188445,0.210329,0.00995437,2,0.796216,3.47492
2,1,Potentiostatic EIS,19.5248,3.47492,-0.00076161,1.99526,0.0477608,-4.17519,0.047634,0.00347728,0.212247,0.208316,0.00994934,2,1.00238,3.47492
2,1,Potentiostatic EIS,21.8347,3.47493,-0.000989829,1.58489,0.0481524,-3.90182,0.0480408,0.00327663,0.174281,0.206812,0.0099585,2,1.26192,3.47493
2,1,Potentiostatic EIS,24.7389,3.47493,-0.000858171,1.25892,0.0484973,-3.67108,0.0483978,0.00310522,0.171254,0.205439,0.00996324,2,1.58866,3.47493
2,1,Potentiostatic EIS,28.3909,3.47492,-0.000919623,0.999998,0.0488264,-3.50987,0.0487348,0.00298918,0.189251,0.204007,0.00996092,2,2,3.47492
2,1,Potentiostatic EIS,32.9853,3.47492,-0.00124226,0.794327,0.0491505,-3.39165,0.0490644,0.00290779,0.171866,0.20266,0.00996082,2,2.51785,3.47492
2,1,Potentiostatic EIS,38.7644,3.47492,-0.000973385,0.630956,0.049448,-3.34385,0.0493638,0.00288421,0.175999,0.201476,0.00996261,2,3.16979,3.47492
2,1,Potentiostatic EIS,46.0391,3.47492,-0.00085118,0.501186,0.0497456,-3.34739,0.0496608,0.00290464,0.143274,0.200224,0.00996026,2,3.99054,3.47492
2,1,Potentiostatic EIS,53.3291,3.47492,-0.000949951,0.5,0.0497297,-3.33613,0.0496455,0.00289395,0.13623,0.200281,0.00995988,2,4,3.47492