Folder: feature-extraction-paper-2024/Data/P190/P190_02/EIS_02_P190_02_1

Note: README.md
# feature-extraction-paper-2024
Repository for code used and referenced in 2024 feature extraction paper

File: 2_EIS_02_P190_02_1 20230822 154437.csv
Step number,Repeats,Step name,Elapsed Time  (s),DC Working Electrode (V),DC Current (A),Frequency (Hz),|Z| (Ohms),Phase (deg),Z' (Ohms),-Z" (Ohms),THD (%),Amplitude (A),Amplitude (V),No of Cycles,Duration of Each Frequency (s),IR Compensated DC Working Electrode (V)
2,1,Potentiostatic EIS,0,3.47505,-0.00893096,1000000,3.44641,88.322,0.100917,-3.44493,1.01719,0.00289336,0.0099722,1430,0.00143,3.47505
2,1,Potentiostatic EIS,0.227065,3.475,-0.00977584,794328,2.74237,87.8708,0.101889,-2.74048,1.13782,0.00361027,0.00990093,1445,0.00181915,3.475
2,1,Potentiostatic EIS,0.466105,3.47498,-0.0102313,630957.375,2.18614,87.3709,0.10028,-2.18384,1.00327,0.00451169,0.00986333,1355,0.00214753,3.47498
2,1,Potentiostatic EIS,0.734327,3.47493,-0.0110012,501187.25,1.74453,87.5453,0.0747178,-1.74292,1.08317,0.00570854,0.00995868,1385,0.00276344,3.47493
2,1,Potentiostatic EIS,1.01278,3.47492,-0.0113098,398107,1.39378,86.7306,0.0794884,-1.39151,1.04629,0.00715253,0.00996906,1400,0.00351664,3.47492
2,1,Potentiostatic EIS,1.31161,3.47487,-0.0118176,316228,1.10654,86.3751,0.0699606,-1.10432,1.05431,0.00895932,0.00991387,1370,0.00433232,3.47487
2,1,Potentiostatic EIS,1.64502,3.47485,-0.0122782,251189,0.888506,85.6619,0.0672074,-0.88596,1.22242,0.0112285,0.00997657,1340,0.00533464,3.47485
2,1,Potentiostatic EIS,2.07132,3.47478,-0.0130947,199526,0.706913,85.5384,0.0549917,-0.704771,1.25753,0.0137218,0.00969955,1355,0.00679109,3.47478
2,1,Potentiostatic EIS,2.53465,3.47477,-0.0137085,158489,0.568884,84.6503,0.0530393,-0.566406,1.31024,0.0175125,0.00996262,1360,0.00858102,3.47477
2,1,Potentiostatic EIS,3.06038,3.47468,-0.0146319,125893,0.45734,83.9515,0.0481899,-0.454794,1.40898,0.0218621,0.00999844,1370,0.0108823,3.47468
2,1,Potentiostatic EIS,3.72961,3.47464,-0.0152993,100000,0.365824,83.0201,0.0444554,-0.363113,1.62682,0.0272356,0.00996347,1370,0.0137,3.47464
2,1,Potentiostatic EIS,4.39822,3.47459,-0.0162862,79432.8,0.293888,81.8001,0.0419165,-0.290883,1.79495,0.0340309,0.0100013,1365,0.0171843,3.47459
2,1,Potentiostatic EIS,4.63965,3.47447,-0.0173408,63095.7,0.236046,80.8269,0.0376299,-0.233027,1.45546,0.0423263,0.00999109,1290,0.0204451,3.47447
2,1,Potentiostatic EIS,4.89331,3.47449,-0.0182863,50118.75,0.190506,79.198,0.035704,-0.187131,1.86011,0.0525043,0.0100042,1025,0.0204514,3.47449
2,1,Potentiostatic EIS,5.1473,3.47446,-0.018529,39810.7,0.153163,77.3052,0.0336587,-0.149419,1.84773,0.0643432,0.00985498,815,0.0204719,3.47446
2,1,Potentiostatic EIS,5.54013,3.47484,-0.0101285,31622.8,0.124562,74.9484,0.0323473,-0.120288,4.72679,0.0801584,0.00998468,645,0.0203967,3.47484
2,1,Potentiostatic EIS,5.76084,3.47523,-0.00344539,25118.9,0.101402,72.1686,0.0310509,-0.0965307,5.73135,0.0991516,0.0100543,510,0.0203034,3.47523
2,1,Potentiostatic EIS,5.96781,3.47522,-0.00331966,19952.6,0.0826524,68.8582,0.0298108,-0.0770891,6.18014,0.118179,0.00976813,405,0.0202981,3.47522
2,1,Potentiostatic EIS,6.16962,3.47523,-0.00296916,15848.9,0.0676011,64.8734,0.0287048,-0.0612041,6.73987,0.144758,0.00978618,320,0.0201906,3.47523
2,1,Potentiostatic EIS,6.37739,3.47525,-0.00242602,12589.2,0.056653,60.1191,0.0282244,-0.0491217,6.91309,0.174916,0.00990951,255,0.0202554,3.47525
2,1,Potentiostatic EIS,6.64149,3.47544,-0.00313836,9999.98,0.0480597,55.0029,0.0275639,-0.0393696,3.36555,0.208158,0.010004,307,0.0307001,3.47544
2,1,Potentiostatic EIS,6.85318,3.47546,-0.00315723,7943.27,0.0415334,49.5631,0.026939,-0.0316119,4.10085,0.25463,0.0105756,244,0.0307178,3.47546
2,1,Potentiostatic EIS,7.06565,3.47548,-0.00263113,6309.57,0.0356944,43.5249,0.0258811,-0.0245817,4.67048,0.293089,0.0104617,193,0.0305885,3.47548
2,1,Potentiostatic EIS,7.27757,3.47547,-0.0026355,5011.87,0.0322644,35.6483,0.0262184,-0.0188039,4.76172,0.318502,0.0102763,153,0.0305276,3.47547
2,1,Potentiostatic EIS,7.4909,3.47551,-0.0019396,3981.07,0.0302179,28.8662,0.0264633,-0.0145882,4.55233,0.335317,0.0101326,122,0.0306451,3.47551
2,1,Potentiostatic EIS,7.65895,3.47551,-0.00182446,3162.27,0.0288407,22.8441,0.0265786,-0.0111967,4.18011,0.350672,0.0101136,97,0.0306742,3.47551
2,1,Potentiostatic EIS,7.82788,3.4755,-0.00209629,2511.88,0.0279952,17.5052,0.0266987,-0.00842075,3.71815,0.371066,0.0103881,77,0.0306543,3.4755
2,1,Potentiostatic EIS,7.99542,3.47553,-0.00175567,1995.26,0.0275771,12.8408,0.0268875,-0.0061288,3.40808,0.370156,0.0102078,61,0.0305725,3.47553
2,1,Potentiostatic EIS,8.1198,3.47553,-0.00175302,1584.89,0.0274282,8.92881,0.0270958,-0.00425705,2.96238,0.325781,0.00893558,48,0.030286,3.47553
2,1,Potentiostatic EIS,8.24367,3.47552,-0.00160269,1258.92,0.027472,5.64104,0.027339,-0.00270038,2.63552,0.376721,0.0103493,38,0.0301845,3.47552
2,1,Potentiostatic EIS,8.37046,3.47552,-0.0017333,999.999,0.0276921,2.8929,0.0276568,-0.00139759,2.42383,0.369516,0.0102327,30,0.03,3.47552
2,1,Potentiostatic EIS,8.49485,3.47555,-0.00103126,794.328,0.028014,0.606774,0.0280125,-0.000296669,2.22969,0.361506,0.0101272,24,0.0302142,3.47555
2,1,Potentiostatic EIS,8.62025,3.47554,-0.00119448,630.956,0.0284266,-1.38404,0.0284183,0.000686607,2.14945,0.353846,0.0100587,19,0.030113,3.47554
2,1,Potentiostatic EIS,8.74509,3.47555,-0.000738775,501.187,0.0288839,-3.02844,0.0288436,0.00152598,2.05852,0.346877,0.0100192,15,0.029929,3.47555
2,1,Potentiostatic EIS,8.82399,3.47555,-0.00100903,398.107,0.0294332,-4.41722,0.0293458,0.00226691,1.98441,0.304203,0.00895368,12,0.0301427,3.47555
2,1,Potentiostatic EIS,8.90282,3.47555,-0.000891187,316.228,0.0300531,-5.64785,0.0299072,0.00295764,1.80162,0.312789,0.00940027,9,0.0284605,3.47555
2,1,Potentiostatic EIS,8.98426,3.47555,-0.000876138,251.189,0.0307481,-6.80627,0.0305314,0.00364404,1.63121,0.314535,0.00967137,8,0.0318486,3.47555
2,1,Potentiostatic EIS,9.07363,3.47555,-0.000739807,199.526,0.0315534,-7.70495,0.0312686,0.00423043,1.43507,0.31171,0.00983552,8,0.0400951,3.47555
2,1,Potentiostatic EIS,9.17396,3.47555,-0.000793889,158.489,0.0323967,-8.50353,0.0320406,0.00479052,1.20516,0.306313,0.00992355,8,0.0504766,3.47555
2,1,Potentiostatic EIS,9.2872,3.47555,-0.000579844,125.892,0.0333342,-9.17979,0.0329072,0.0053179,1.02454,0.298896,0.00996343,8,0.0635464,3.47555
2,1,Potentiostatic EIS,9.41765,3.47555,-0.000368932,100,0.0343537,-9.72516,0.0338601,0.00580311,0.797622,0.290518,0.00998038,8,0.08,3.47555
2,1,Potentiostatic EIS,9.56939,3.47555,-0.00044184,79.4327,0.03545,-10.0355,0.0349076,0.00617747,0.684053,0.281518,0.00997984,8,0.100714,3.47555
2,1,Potentiostatic EIS,9.74913,3.47555,-0.000733451,63.0956,0.0365908,-10.2014,0.0360124,0.00648055,0.552958,0.27258,0.00997394,8,0.126792,3.47555
2,1,Potentiostatic EIS,9.96414,3.47555,-0.000238856,50.1186,0.0377616,-10.3088,0.0371521,0.00675757,0.458376,0.258882,0.0097758,8,0.159621,3.47555
2,1,Potentiostatic EIS,10.2227,3.47553,-0.00126642,39.8107,0.0389546,-10.1868,0.0383405,0.0068894,0.355201,0.251739,0.00980639,8,0.200951,3.47553
2,1,Potentiostatic EIS,10.3667,3.47554,-0.00253651,31.6228,0.0401051,-10.0224,0.0394931,0.00697962,0.29372,0.247286,0.00991755,2,0.0632456,3.47554
2,1,Potentiostatic EIS,10.5288,3.47555,-0.00126678,25.1188,0.0413411,-9.59853,0.0407624,0.00689336,0.242771,0.233816,0.00966615,2,0.0796217,3.47555
2,1,Potentiostatic EIS,10.7285,3.47554,-0.00128599,19.9526,0.0424894,-9.16631,0.0419468,0.00676859,0.237182,0.230091,0.00977646,2,0.100238,3.47554
2,1,Potentiostatic EIS,10.9757,3.47554,-0.0014816,15.8489,0.0435578,-8.6831,0.0430585,0.00657589,0.226357,0.225965,0.00984249,2,0.126192,3.47554
2,1,Potentiostatic EIS,11.2825,3.47554,-0.00157402,12.5892,0.0445856,-8.12934,0.0441376,0.00630478,0.188801,0.221674,0.00988348,2,0.158866,3.47554
2,1,Potentiostatic EIS,11.664,3.47555,-0.00138661,9.99998,0.0455038,-7.57213,0.045107,0.00599623,0.184832,0.217796,0.00991051,2,0.2,3.47555
2,1,Potentiostatic EIS,12.1393,3.47554,-0.00176471,7.94328,0.0463765,-6.97624,0.0460331,0.00563278,0.188863,0.214238,0.00993557,2,0.251785,3.47554
2,1,Potentiostatic EIS,12.7325,3.47555,-0.00158582,6.30957,0.0471396,-6.41582,0.0468444,0.00526754,0.177726,0.210906,0.00994204,2,0.316979,3.47555
2,1,Potentiostatic EIS,13.4733,3.47554,-0.00154414,5.01186,0.0478357,-5.8866,0.0475834,0.00490602,0.168544,0.208244,0.00996149,2,0.399053,3.47554
2,1,Potentiostatic EIS,14.4014,3.47555,-0.00150739,3.98106,0.0484416,-5.38122,0.0482281,0.00454295,0.170257,0.205619,0.00996054,2,0.502378,3.47555
2,1,Potentiostatic EIS,15.5667,3.47554,-0.00178914,3.16227,0.0489798,-4.94773,0.0487973,0.00422436,0.189693,0.203243,0.00995482,2,0.632458,3.47554
2,1,Potentiostatic EIS,17.0288,3.47554,-0.00173034,2.51188,0.0495018,-4.56519,0.0493447,0.00394001,0.186751,0.201289,0.00996414,2,0.796216,3.47554
2,1,Potentiostatic EIS,18.8679,3.47555,-0.00144433,1.99526,0.0499614,-4.20167,0.0498271,0.00366054,0.161592,0.199396,0.00996207,2,1.00238,3.47555
2,1,Potentiostatic EIS,21.1783,3.47555,-0.00173158,1.58489,0.0503669,-3.9263,0.0502486,0.00344878,0.16834,0.197827,0.00996391,2,1.26192,3.47555
2,1,Potentiostatic EIS,24.0827,3.47555,-0.00158578,1.25892,0.0507493,-3.69447,0.0506438,0.00327008,0.161744,0.1964,0.00996714,2,1.58866,3.47555
2,1,Potentiostatic EIS,27.7357,3.47556,-0.00137361,0.999998,0.0511112,-3.54854,0.0510132,0.00316348,0.157484,0.194913,0.00996223,2,2,3.47556
2,1,Potentiostatic EIS,32.3307,3.47556,-0.00183341,0.794327,0.0514254,-3.40641,0.0513345,0.0030556,0.160655,0.19385,0.0099688,2,2.51785,3.47556
2,1,Potentiostatic EIS,38.1095,3.47556,-0.00150569,0.630956,0.0517411,-3.35489,0.0516525,0.00302791,0.1814,0.19264,0.00996741,2,3.16979,3.47556
2,1,Potentiostatic EIS,45.3829,3.47556,-0.00145548,0.501186,0.052065,-3.33693,0.0519768,0.00303057,0.183849,0.19154,0.00997254,2,3.99054,3.47556
2,1,Potentiostatic EIS,52.6738,3.47555,-0.00152486,0.5,0.0520456,-3.33544,0.0519575,0.00302809,0.193663,0.19156,0.00996984,2,4,3.47555