Folder: feature-extraction-paper-2024/Data/P190/P190_02/EIS_08_P190_02_2

Note: README.md
# feature-extraction-paper-2024
Repository for code used and referenced in 2024 feature extraction paper

File: 2_EIS_08_P190_02_2 20230913 142851.csv
Step number,Repeats,Step name,Elapsed Time  (s),DC Working Electrode (V),DC Current (A),Frequency (Hz),|Z| (Ohms),Phase (deg),Z' (Ohms),-Z" (Ohms),THD (%),Amplitude (A),Amplitude (V),No of Cycles,Duration of Each Frequency (s),IR Compensated DC Working Electrode (V)
2,1,Potentiostatic EIS,0,3.55841,-0.0127802,1000000,2.43734,87.7667,0.0949788,-2.43549,0.641089,0.00408439,0.00995515,1430,0.00143,3.55841
2,1,Potentiostatic EIS,0.511879,3.55828,-0.0148922,630957.375,1.56061,86.9341,0.0834671,-1.55837,0.774895,0.0063752,0.00994917,1355,0.00214753,3.55828
2,1,Potentiostatic EIS,1.05755,3.55818,-0.0172432,398107,0.99674,86.149,0.0669437,-0.994489,0.94769,0.00998776,0.0099552,1400,0.00351664,3.55818
2,1,Potentiostatic EIS,1.75691,3.55808,-0.0191494,251189,0.637309,85.0278,0.0552374,-0.63491,1.11962,0.0156517,0.009975,1340,0.00533464,3.55808
2,1,Potentiostatic EIS,2.70326,3.55791,-0.0224328,158489,0.408529,83.6637,0.0450868,-0.406034,1.44951,0.0243888,0.00996357,1360,0.00858102,3.55791
2,1,Potentiostatic EIS,3.90382,3.55771,-0.0263605,100000,0.263837,81.893,0.0372069,-0.261201,1.58954,0.0377643,0.00996364,1370,0.0137,3.55771
2,1,Potentiostatic EIS,4.86184,3.55755,-0.0299541,63095.7,0.170741,79.3822,0.0314602,-0.167818,1.8114,0.0584188,0.00997451,1290,0.0204451,3.55755
2,1,Potentiostatic EIS,5.48471,3.55811,-0.0165907,39810.7,0.111339,75.2052,0.0284314,-0.107648,5.11598,0.0900045,0.010021,815,0.0204719,3.55811
2,1,Potentiostatic EIS,5.95209,3.55844,-0.00919032,25118.9,0.0741403,69.1508,0.0263872,-0.0692856,6.33556,0.136388,0.0101118,510,0.0203034,3.55844
2,1,Potentiostatic EIS,6.41919,3.55853,-0.00757433,15848.9,0.0502762,60.459,0.0247885,-0.0437405,7.17976,0.199343,0.0100222,320,0.0201906,3.55853
2,1,Potentiostatic EIS,6.95002,3.55853,-0.00642799,9999.98,0.0369198,49.1656,0.0241409,-0.0279336,3.22213,0.270478,0.00998602,307,0.0307001,3.55853
2,1,Potentiostatic EIS,7.37718,3.55856,-0.00595816,6309.57,0.0284416,36.657,0.0228166,-0.0169803,4.28232,0.369515,0.0105096,193,0.0305885,3.55856
2,1,Potentiostatic EIS,7.80165,3.5586,-0.00499606,3981.07,0.0256076,22.2693,0.0236976,-0.00970429,4.04854,0.399185,0.0102222,122,0.0306451,3.5586
2,1,Potentiostatic EIS,8.13635,3.55863,-0.00419357,2511.88,0.0246966,12.2634,0.024133,-0.00524571,3.44721,0.424173,0.0104756,77,0.0306543,3.55863
2,1,Potentiostatic EIS,8.42392,3.55868,-0.00343877,1584.89,0.0247366,5.15646,0.0246365,-0.00222322,2.8686,0.345668,0.00855066,48,0.030286,3.55868
2,1,Potentiostatic EIS,8.67044,3.55868,-0.00329749,999.999,0.0253002,0.231218,0.0253,-0.000102099,2.4133,0.405814,0.0102672,30,0.03,3.55868
2,1,Potentiostatic EIS,8.91881,3.55869,-0.00311513,630.956,0.0261415,-3.17019,0.0261015,0.00144568,2.25016,0.384626,0.0100547,19,0.030113,3.55869
2,1,Potentiostatic EIS,9.12234,3.5587,-0.00273533,398.107,0.027203,-5.63846,0.0270714,0.00267272,2.08214,0.328847,0.00894564,12,0.0301427,3.5587
2,1,Potentiostatic EIS,9.28283,3.55871,-0.00247141,251.189,0.0285047,-7.4648,0.0282631,0.00370324,1.72259,0.339421,0.00967509,8,0.0318486,3.55871
2,1,Potentiostatic EIS,9.4744,3.55871,-0.0022924,158.489,0.0300425,-8.74823,0.029693,0.00456925,1.30087,0.330263,0.00992192,8,0.0504766,3.55871
2,1,Potentiostatic EIS,9.71531,3.55872,-0.00230109,100,0.0318202,-9.60765,0.0313739,0.00531081,0.906913,0.313523,0.00997637,8,0.08,3.55872
2,1,Potentiostatic EIS,10.0457,3.55871,-0.00269095,63.0956,0.0338013,-9.84256,0.0333038,0.00577805,0.591876,0.294955,0.00996987,8,0.126792,3.55871
2,1,Potentiostatic EIS,10.5192,3.55871,-0.00287911,39.8107,0.0358503,-9.59399,0.0353489,0.005975,0.378078,0.274006,0.00982318,8,0.200951,3.55871
2,1,Potentiostatic EIS,10.8247,3.55872,-0.0030598,25.1188,0.037872,-8.87567,0.0374185,0.00584331,0.25565,0.255314,0.00966941,2,0.0796217,3.55872
2,1,Potentiostatic EIS,11.2714,3.55872,-0.00322228,15.8489,0.0397316,-7.83771,0.0393605,0.00541811,0.226594,0.247502,0.00983365,2,0.126192,3.55872
2,1,Potentiostatic EIS,11.959,3.55872,-0.00329841,9.99998,0.0413147,-6.60617,0.0410404,0.00475301,0.17782,0.239914,0.00991196,2,0.2,3.55872
2,1,Potentiostatic EIS,13.0272,3.55872,-0.00309811,6.30957,0.0425248,-5.37848,0.0423375,0.00398603,0.17602,0.233823,0.00994326,2,0.316979,3.55872
2,1,Potentiostatic EIS,14.6971,3.55873,-0.00330433,3.98106,0.0434423,-4.31604,0.0433191,0.00326937,0.176125,0.229133,0.00995408,2,0.502378,3.55873
2,1,Potentiostatic EIS,17.3237,3.55872,-0.00324524,2.51188,0.0441164,-3.49377,0.0440344,0.00268845,0.187639,0.225673,0.00995586,2,0.796216,3.55872
2,1,Potentiostatic EIS,21.4734,3.55872,-0.00346968,1.58489,0.0446369,-2.90577,0.0445795,0.0022628,0.17237,0.22323,0.00996432,2,1.26192,3.55872
2,1,Potentiostatic EIS,28.0298,3.55872,-0.00336222,0.999998,0.0450583,-2.56191,0.0450133,0.00201406,0.167116,0.221212,0.00996743,2,2,3.55872
2,1,Potentiostatic EIS,38.4037,3.55872,-0.00296771,0.630956,0.0454524,-2.40116,0.0454125,0.00190427,0.188682,0.219237,0.00996484,2,3.16979,3.55872
2,1,Potentiostatic EIS,54.833,3.55871,-0.00305759,0.398106,0.0458573,-2.42064,0.0458164,0.00193681,0.162395,0.217455,0.0099719,2,5.02379,3.55871
2,1,Potentiostatic EIS,80.8435,3.55872,-0.00298968,0.251188,0.0462622,-2.62912,0.0462135,0.00212208,0.164853,0.215331,0.00996167,2,7.96216,3.55872
2,1,Potentiostatic EIS,122.058,3.55872,-0.00215982,0.158489,0.0467187,-3.00473,0.0466545,0.00244892,0.160002,0.213307,0.00996541,2,12.6192,3.55872
2,1,Potentiostatic EIS,187.363,3.55871,-0.00144381,0.0999997,0.0472399,-3.59417,0.047147,0.00296142,0.178835,0.211055,0.0099702,2,20.0001,3.55871