Folder: feature-extraction-paper-2024/Data/P190/P190_02/EIS_02_P190_02_5

Note: README.md
# feature-extraction-paper-2024
Repository for code used and referenced in 2024 feature extraction paper

File: 2_EIS_02_P190_02_5 20230822 155834.csv
Step number,Repeats,Step name,Elapsed Time  (s),DC Working Electrode (V),DC Current (A),Frequency (Hz),|Z| (Ohms),Phase (deg),Z' (Ohms),-Z" (Ohms),THD (%),Amplitude (A),Amplitude (V),No of Cycles,Duration of Each Frequency (s),IR Compensated DC Working Electrode (V)
2,1,Potentiostatic EIS,0,3.47526,-0.00657051,1000000,1.68648,85.7347,0.125431,-1.68181,2.03066,0.00595574,0.0100445,1430,0.00143,3.47526
2,1,Potentiostatic EIS,0.244927,3.47513,-0.00853873,794328,1.35677,85.4176,0.108396,-1.35243,2.02037,0.00739063,0.0100277,1445,0.00181915,3.47513
2,1,Potentiostatic EIS,0.501523,3.47507,-0.00958037,630957.375,1.08821,85.0086,0.094681,-1.08408,1.86704,0.00915546,0.00996328,1355,0.00214753,3.47507
2,1,Potentiostatic EIS,0.776012,3.47503,-0.010638,501187.25,0.871707,84.5976,0.0820716,-0.867835,2.02855,0.0111114,0.00968637,1385,0.00276344,3.47503
2,1,Potentiostatic EIS,1.07952,3.47494,-0.0123349,398107,0.701051,83.6085,0.0780415,-0.696694,2.01673,0.014229,0.00997536,1400,0.00351664,3.47494
2,1,Potentiostatic EIS,1.4093,3.47487,-0.0132181,316228,0.559448,83.1257,0.0669609,-0.555427,1.94357,0.0177869,0.00995095,1370,0.00433232,3.47487
2,1,Potentiostatic EIS,1.77402,3.47477,-0.0150314,251189,0.452975,81.6994,0.0653947,-0.44823,2.0514,0.0220294,0.00997895,1340,0.00533464,3.47477
2,1,Potentiostatic EIS,2.22067,3.47468,-0.0167016,199526,0.36297,81.2483,0.055227,-0.358743,2.54353,0.0273781,0.00993762,1355,0.00679109,3.47468
2,1,Potentiostatic EIS,2.71952,3.47459,-0.0180365,158489,0.293928,79.8431,0.0518325,-0.289322,2.14191,0.0338985,0.00996386,1360,0.00858102,3.47459
2,1,Potentiostatic EIS,3.29475,3.47445,-0.0200833,125893,0.238366,78.0968,0.0491653,-0.233241,2.48469,0.0418691,0.00998028,1370,0.0108823,3.47445
2,1,Potentiostatic EIS,3.9674,3.47433,-0.0221927,100000,0.191548,76.7088,0.0440371,-0.186417,2.25985,0.0520231,0.00996507,1370,0.0137,3.47433
2,1,Potentiostatic EIS,4.94996,3.47422,-0.023283,79432.8,0.15612,74.6216,0.041402,-0.15053,3.20215,0.0639183,0.00997901,1365,0.0171843,3.47422
2,1,Potentiostatic EIS,5.31922,3.47491,-0.0109548,63095.7,0.127346,72.4427,0.0384151,-0.121414,4.43384,0.0784566,0.00999121,1290,0.0204451,3.47491
2,1,Potentiostatic EIS,5.54701,3.47492,-0.0112417,50118.75,0.104797,69.1522,0.0372958,-0.0979357,4.86619,0.0952029,0.00997705,1025,0.0204514,3.47492
2,1,Potentiostatic EIS,5.77104,3.47485,-0.0112789,39810.7,0.0856268,65.8456,0.0350382,-0.0781299,5.59699,0.11778,0.0100853,815,0.0204719,3.47485
2,1,Potentiostatic EIS,5.99584,3.47486,-0.011221,31622.8,0.0717605,61.6368,0.0340905,-0.0631459,6.12965,0.141528,0.0101562,645,0.0203967,3.47486
2,1,Potentiostatic EIS,6.21814,3.47526,-0.00487945,25118.9,0.0605693,56.9561,0.0330273,-0.0507725,6.65779,0.167629,0.0101532,510,0.0203034,3.47526
2,1,Potentiostatic EIS,6.44311,3.4753,-0.00393071,19952.6,0.0516752,51.4063,0.0322347,-0.0403888,6.62915,0.196693,0.0101636,405,0.0202981,3.4753
2,1,Potentiostatic EIS,6.6635,3.47531,-0.00347609,15848.9,0.0448824,45.8337,0.0312715,-0.0321951,6.47339,0.22373,0.010041,320,0.0201906,3.47531
2,1,Potentiostatic EIS,6.88268,3.47537,-0.00257371,12589.2,0.0402651,39.9627,0.0308617,-0.0258618,6.40405,0.248707,0.010014,255,0.0202554,3.47537
2,1,Potentiostatic EIS,7.1884,3.47556,-0.00233396,9999.98,0.0368719,33.9264,0.0305946,-0.0205792,2.62523,0.270763,0.00998355,307,0.0307001,3.47556
2,1,Potentiostatic EIS,7.40415,3.4756,-0.00189402,7943.27,0.0344532,28.7266,0.0302128,-0.0165593,3.07027,0.289183,0.00996327,244,0.0307178,3.4756
2,1,Potentiostatic EIS,7.61891,3.4756,-0.00178162,6309.57,0.0317689,23.1605,0.0292085,-0.012495,3.3993,0.330456,0.0104982,193,0.0305885,3.4756
2,1,Potentiostatic EIS,7.83097,3.47566,-0.000984549,5011.87,0.0310621,17.0467,0.0296974,-0.00910589,3.4187,0.33082,0.010276,153,0.0305276,3.47566
2,1,Potentiostatic EIS,7.99875,3.47568,-0.000556205,3981.07,0.0307729,12.7959,0.0300086,-0.00681552,3.38046,0.29092,0.00895244,122,0.0306451,3.47568
2,1,Potentiostatic EIS,8.16894,3.47569,-0.000446615,3162.27,0.030636,9.33592,0.0302302,-0.00496985,3.12064,0.343708,0.0105299,97,0.0306742,3.47569
2,1,Potentiostatic EIS,8.3376,3.47571,-0.000114738,2511.88,0.0306395,6.43082,0.0304467,-0.00343173,3.00079,0.336589,0.0103129,77,0.0306543,3.47571
2,1,Potentiostatic EIS,8.50622,3.47572,-0.000144286,1995.26,0.0307455,3.99354,0.0306709,-0.00214124,2.7358,0.329162,0.0101203,61,0.0305725,3.47572
2,1,Potentiostatic EIS,8.63039,3.4757,-0.000177491,1584.89,0.0309393,1.9513,0.0309213,-0.00105348,2.60124,0.330855,0.0102364,48,0.030286,3.4757
2,1,Potentiostatic EIS,8.7544,3.47572,0.000149495,1258.92,0.031221,0.268827,0.0312207,-0.000146486,2.51686,0.330636,0.0103228,38,0.0301845,3.47572
2,1,Potentiostatic EIS,8.87786,3.47571,-8.16802e-05,999.999,0.0315586,-1.17175,0.031552,0.000645357,2.45797,0.322513,0.0101781,30,0.03,3.47571
2,1,Potentiostatic EIS,9.00216,3.47572,3.01022e-05,794.328,0.0319649,-2.35229,0.0319379,0.00131195,2.374,0.315682,0.0100907,24,0.0302142,3.47572
2,1,Potentiostatic EIS,9.12531,3.47572,0.000146045,630.956,0.0323921,-3.45569,0.0323332,0.00195249,2.26538,0.309898,0.0100382,19,0.030113,3.47572
2,1,Potentiostatic EIS,9.20483,3.47573,0.000324334,501.187,0.032882,-4.41472,0.0327844,0.0025311,2.18426,0.262068,0.00861732,15,0.029929,3.47573
2,1,Potentiostatic EIS,9.28442,3.47574,0.000460141,398.107,0.0334339,-5.21589,0.0332955,0.00303944,2.01234,0.273871,0.00915658,12,0.0301427,3.47574
2,1,Potentiostatic EIS,9.36354,3.47575,0.000624012,316.228,0.0340324,-6.03226,0.033844,0.00357642,1.78784,0.27948,0.0095114,9,0.0284605,3.47575
2,1,Potentiostatic EIS,9.4447,3.47574,0.000598869,251.189,0.034732,-6.76603,0.0344901,0.00409196,1.56982,0.28027,0.00973434,8,0.0318486,3.47574
2,1,Potentiostatic EIS,9.53395,3.47573,0.000731701,199.526,0.0354774,-7.34362,0.0351864,0.00453471,1.35495,0.277794,0.00985539,8,0.0400951,3.47573
2,1,Potentiostatic EIS,9.63405,3.47573,0.000775131,158.489,0.0363096,-7.88488,0.0359664,0.00498107,1.14831,0.273508,0.00993099,8,0.0504766,3.47573
2,1,Potentiostatic EIS,9.74776,3.47573,0.000873599,125.892,0.0371947,-8.38063,0.0367976,0.00542108,0.966136,0.267777,0.0099599,8,0.0635464,3.47573
2,1,Potentiostatic EIS,9.87767,3.47572,0.000572052,100,0.0381739,-8.75382,0.0377293,0.00580966,0.764123,0.261294,0.00997461,8,0.08,3.47572
2,1,Potentiostatic EIS,10.029,3.47573,0.00058586,79.4327,0.0392276,-9.01483,0.0387431,0.00614658,0.623731,0.254365,0.00997815,8,0.100714,3.47573
2,1,Potentiostatic EIS,10.2086,3.47572,0.000411872,63.0956,0.0403191,-9.12453,0.0398089,0.00639383,0.516551,0.247347,0.0099728,8,0.126792,3.47572
2,1,Potentiostatic EIS,10.4215,3.47573,0.000908901,50.1186,0.0414573,-9.16323,0.0409283,0.00660198,0.409281,0.236521,0.00980553,8,0.159621,3.47573
2,1,Potentiostatic EIS,10.6809,3.47571,8.77826e-05,39.8107,0.0425942,-9.0141,0.0420681,0.00667354,0.340089,0.230787,0.00983018,8,0.200951,3.47571
2,1,Potentiostatic EIS,10.8251,3.47572,-0.0011667,31.6228,0.043676,-8.89026,0.0431513,0.0067498,0.297041,0.227318,0.00992847,2,0.0632456,3.47572
2,1,Potentiostatic EIS,10.9877,3.47572,-0.00015095,25.1188,0.0448667,-8.48176,0.044376,0.0066176,0.296552,0.215661,0.00967573,2,0.0796217,3.47572
2,1,Potentiostatic EIS,11.1877,3.47572,-0.000532485,19.9526,0.0459237,-8.11997,0.0454633,0.00648656,0.263908,0.212754,0.00977045,2,0.100238,3.47572
2,1,Potentiostatic EIS,11.4347,3.47573,-0.000177032,15.8489,0.0469495,-7.61924,0.046535,0.006225,0.252436,0.209514,0.00983655,2,0.126192,3.47573
2,1,Potentiostatic EIS,11.7411,3.47572,-0.000353963,12.5892,0.047898,-7.17378,0.047523,0.00598146,0.242593,0.206372,0.00988475,2,0.158866,3.47572
2,1,Potentiostatic EIS,12.122,3.47572,-0.000453297,9.99998,0.0487799,-6.62851,0.0484538,0.00563073,0.21083,0.203299,0.00991692,2,0.2,3.47572
2,1,Potentiostatic EIS,12.5969,3.47573,-0.000282392,7.94328,0.0495534,-6.10729,0.0492721,0.00527201,0.201111,0.200371,0.00992906,2,0.251785,3.47573
2,1,Potentiostatic EIS,13.1881,3.47573,-0.000385959,6.30957,0.050247,-5.60426,0.0500068,0.00490697,0.195242,0.198016,0.00994969,2,0.316979,3.47573
2,1,Potentiostatic EIS,13.9287,3.47572,-0.000427311,5.01186,0.0508622,-5.1293,0.0506585,0.00454726,0.173801,0.195618,0.00994954,2,0.399053,3.47572
2,1,Potentiostatic EIS,14.8554,3.47572,-0.000620789,3.98106,0.0514149,-4.69161,0.0512427,0.00420536,0.173961,0.193742,0.00996123,2,0.502378,3.47572
2,1,Potentiostatic EIS,16.0204,3.47573,-0.000535144,3.16227,0.0518868,-4.31183,0.0517399,0.00390109,0.200994,0.192039,0.0099643,2,0.632458,3.47573
2,1,Potentiostatic EIS,17.4827,3.47573,-0.000394049,2.51188,0.0522963,-3.95376,0.0521719,0.00360591,0.183525,0.190518,0.0099634,2,0.796216,3.47573
2,1,Potentiostatic EIS,19.3219,3.47572,-0.000702864,1.99526,0.0526418,-3.67057,0.0525338,0.00337012,0.160191,0.189442,0.00997258,2,1.00238,3.47572
2,1,Potentiostatic EIS,21.6313,3.47572,-0.000726464,1.58489,0.0529412,-3.4381,0.052846,0.00317489,0.182974,0.188374,0.00997274,2,1.26192,3.47572
2,1,Potentiostatic EIS,24.536,3.47572,-0.000649934,1.25892,0.0532686,-3.2449,0.0531832,0.00301521,0.168633,0.187209,0.00997235,2,1.58866,3.47572
2,1,Potentiostatic EIS,28.1881,3.47573,-0.000818332,0.999998,0.0534961,-3.11027,0.0534173,0.00290258,0.183282,0.18644,0.00997382,2,2,3.47573
2,1,Potentiostatic EIS,32.7831,3.47573,-0.000717027,0.794327,0.0537442,-3.0117,0.05367,0.00282371,0.199078,0.185529,0.00997112,2,2.51785,3.47573
2,1,Potentiostatic EIS,38.5628,3.47573,-0.000573291,0.630956,0.0540129,-2.96918,0.0539404,0.0027978,0.201561,0.184725,0.00997753,2,3.16979,3.47573
2,1,Potentiostatic EIS,45.8377,3.47574,-0.000829108,0.501186,0.0541889,-2.99352,0.0541149,0.0028299,0.198771,0.184074,0.00997474,2,3.99054,3.47574
2,1,Potentiostatic EIS,53.1268,3.47574,-0.000780265,0.5,0.0540011,-2.97498,0.0539283,0.00280265,0.211142,0.184711,0.00997456,2,4,3.47574