Folder: feature-extraction-paper-2024/Data/P190/P190_02/EIS_04_P190_02_1

Note: README.md
# feature-extraction-paper-2024
Repository for code used and referenced in 2024 feature extraction paper

File: 2_EIS_04_P190_02_1 20230825 151646.csv
Step number,Repeats,Step name,Elapsed Time  (s),DC Working Electrode (V),DC Current (A),Frequency (Hz),|Z| (Ohms),Phase (deg),Z' (Ohms),-Z" (Ohms),THD (%),Amplitude (A),Amplitude (V),No of Cycles,Duration of Each Frequency (s),IR Compensated DC Working Electrode (V)
2,1,Potentiostatic EIS,0,3.55278,-0.0104288,1000000,3.00435,87.3109,0.140951,-3.00104,1.61849,0.00331109,0.00994769,1430,0.00143,3.55278
2,1,Potentiostatic EIS,0.229125,3.5527,-0.0118844,794328,2.39653,86.8087,0.133413,-2.39281,1.59019,0.00412562,0.00988747,1445,0.00181915,3.5527
2,1,Potentiostatic EIS,0.487393,3.55265,-0.0127915,630957.375,1.91434,86.4637,0.118079,-1.91069,1.56175,0.00521253,0.00997849,1355,0.00214753,3.55265
2,1,Potentiostatic EIS,0.758302,3.55262,-0.0134551,501187.25,1.53536,86.1319,0.103574,-1.53186,1.71148,0.00648908,0.00996306,1385,0.00276344,3.55262
2,1,Potentiostatic EIS,1.041,3.55256,-0.0144821,398107,1.22712,85.5467,0.0952811,-1.22342,1.74287,0.00812111,0.00996561,1400,0.00351664,3.55256
2,1,Potentiostatic EIS,1.34321,3.55254,-0.0150841,316228,0.982323,85.1043,0.0838338,-0.978739,1.68732,0.0101122,0.00993341,1370,0.00433232,3.55254
2,1,Potentiostatic EIS,1.7163,3.55243,-0.0165915,251189,0.787792,84.2901,0.0783788,-0.783883,1.91722,0.0126711,0.00998234,1340,0.00533464,3.55243
2,1,Potentiostatic EIS,2.12519,3.55238,-0.0177037,199526,0.631799,83.86,0.0675766,-0.628174,1.69531,0.0157136,0.00992785,1355,0.00679109,3.55238
2,1,Potentiostatic EIS,2.58584,3.55235,-0.0187215,158489,0.509206,83.0002,0.062055,-0.505411,1.92602,0.0195867,0.00997378,1360,0.00858102,3.55235
2,1,Potentiostatic EIS,3.29543,3.55228,-0.0200266,125893,0.411803,82.2429,0.055583,-0.408035,1.90364,0.024286,0.0100012,1370,0.0108823,3.55228
2,1,Potentiostatic EIS,3.91406,3.55218,-0.0219844,100000,0.330203,81.344,0.049696,-0.326442,2.14232,0.0301932,0.00997004,1370,0.0137,3.55218
2,1,Potentiostatic EIS,4.57699,3.55211,-0.0231217,79432.8,0.266965,80.102,0.0458898,-0.262991,2.55405,0.037387,0.00998101,1365,0.0171843,3.55211
2,1,Potentiostatic EIS,4.82094,3.55206,-0.0253094,63095.7,0.215041,78.8948,0.0414194,-0.211015,2.34897,0.0463829,0.0099742,1290,0.0204451,3.55206
2,1,Potentiostatic EIS,5.07437,3.55198,-0.0260858,50118.75,0.174071,77.5101,0.0376461,-0.169952,2.2083,0.0562635,0.00979691,1025,0.0204514,3.55198
2,1,Potentiostatic EIS,5.41881,3.55196,-0.0260469,39810.7,0.141791,75.2851,0.0360163,-0.137141,2.25056,0.0686416,0.00973401,815,0.0204719,3.55196
2,1,Potentiostatic EIS,5.75942,3.55254,-0.0140354,31622.8,0.11615,72.9622,0.0340323,-0.111052,5.05209,0.0862399,0.0100168,645,0.0203967,3.55254
2,1,Potentiostatic EIS,5.97929,3.55282,-0.00636048,25118.9,0.0946141,70.1127,0.032185,-0.0889717,5.80885,0.106338,0.0100612,510,0.0203034,3.55282
2,1,Potentiostatic EIS,6.20009,3.55291,-0.00583656,19952.6,0.0775991,66.8582,0.0304971,-0.0713551,6.49483,0.129645,0.0100603,405,0.0202981,3.55291
2,1,Potentiostatic EIS,6.40302,3.5529,-0.004874,15848.9,0.0639956,63.1391,0.0289149,-0.0570909,6.90496,0.152124,0.00973506,320,0.0201906,3.5529
2,1,Potentiostatic EIS,6.61134,3.55292,-0.00472298,12589.2,0.0539198,58.5029,0.0281707,-0.0459756,6.96497,0.182863,0.00986033,255,0.0202554,3.55292
2,1,Potentiostatic EIS,6.91616,3.55292,-0.0040761,9999.98,0.0460375,53.5436,0.027356,-0.0370284,3.29302,0.217074,0.00999355,307,0.0307001,3.55292
2,1,Potentiostatic EIS,7.12864,3.55291,-0.00444804,7943.27,0.0399832,48.3752,0.0265588,-0.0298879,4.02255,0.265586,0.010619,244,0.0307178,3.55291
2,1,Potentiostatic EIS,7.34046,3.55295,-0.00348783,6309.57,0.0344978,42.6949,0.025355,-0.0233928,4.59913,0.304074,0.0104899,193,0.0305885,3.55295
2,1,Potentiostatic EIS,7.55362,3.55296,-0.00350377,5011.87,0.0311547,35.0007,0.0255202,-0.0178699,4.71066,0.330734,0.0103039,153,0.0305276,3.55296
2,1,Potentiostatic EIS,7.76553,3.553,-0.00242717,3981.07,0.0292035,28.5445,0.0256537,-0.0139546,4.51644,0.347786,0.0101566,122,0.0306451,3.553
2,1,Potentiostatic EIS,7.93413,3.55301,-0.002218,3162.27,0.0278724,22.7561,0.0257028,-0.0107813,4.20657,0.355483,0.00990815,97,0.0306742,3.55301
2,1,Potentiostatic EIS,8.10257,3.55299,-0.00259066,2511.88,0.0270366,17.5753,0.0257746,-0.00816392,3.78596,0.385355,0.0104187,77,0.0306543,3.55299
2,1,Potentiostatic EIS,8.27097,3.55303,-0.00193691,1995.26,0.026555,13.1002,0.0258639,-0.00601882,3.2781,0.385229,0.0102297,61,0.0305725,3.55303
2,1,Potentiostatic EIS,8.39595,3.55304,-0.0015997,1584.89,0.0263632,9.22389,0.0260223,-0.00422583,3.03531,0.330996,0.00872611,48,0.030286,3.55304
2,1,Potentiostatic EIS,8.52086,3.55304,-0.00162303,1258.92,0.0263787,6.04068,0.0262322,-0.00277595,2.71247,0.383686,0.0101211,38,0.0301845,3.55304
2,1,Potentiostatic EIS,8.64559,3.55305,-0.00138445,999.999,0.0265482,3.27896,0.0265048,-0.00151849,2.53477,0.386252,0.0102543,30,0.03,3.55305
2,1,Potentiostatic EIS,8.76927,3.55306,-0.00127337,794.328,0.0268483,1.03622,0.0268439,-0.000485539,2.30799,0.377873,0.0101452,24,0.0302142,3.55306
2,1,Potentiostatic EIS,8.89302,3.55305,-0.00145358,630.956,0.0271912,-0.89586,0.0271879,0.000425136,2.20079,0.370343,0.0100701,19,0.030113,3.55305
2,1,Potentiostatic EIS,9.01641,3.55307,-0.00069597,501.187,0.0276183,-2.45886,0.0275929,0.00118488,2.09205,0.363475,0.0100386,15,0.029929,3.55307
2,1,Potentiostatic EIS,9.09879,3.55306,-0.00101416,398.107,0.0281315,-3.85182,0.028068,0.00188977,2.02189,0.31563,0.00887916,12,0.0301427,3.55306
2,1,Potentiostatic EIS,9.17799,3.55306,-0.000818163,316.228,0.0286567,-4.97215,0.0285489,0.00248372,1.82907,0.325516,0.00932821,9,0.0284605,3.55306
2,1,Potentiostatic EIS,9.2586,3.55306,-0.000890032,251.189,0.0293088,-5.9453,0.0291511,0.00303577,1.67826,0.328383,0.00962451,8,0.0318486,3.55306
2,1,Potentiostatic EIS,9.34804,3.55308,-0.00058248,199.526,0.0299985,-6.71984,0.0297924,0.00351026,1.4974,0.326473,0.00979371,8,0.0400951,3.55308
2,1,Potentiostatic EIS,9.44754,3.55307,-0.000494229,158.489,0.0307221,-7.38625,0.0304671,0.00394955,1.23899,0.32176,0.00988513,8,0.0504766,3.55307
2,1,Potentiostatic EIS,9.56082,3.55308,-0.000451605,125.892,0.0314985,-7.89661,0.0311998,0.00432745,1.09767,0.31513,0.00992613,8,0.0635464,3.55308
2,1,Potentiostatic EIS,9.69045,3.55308,-0.000562866,100,0.0323649,-8.29784,0.032026,0.00467086,0.875231,0.307427,0.00994984,8,0.08,3.55308
2,1,Potentiostatic EIS,9.84181,3.55307,-0.000714745,79.4327,0.0332603,-8.48344,0.0328964,0.00490668,0.704421,0.299362,0.00995686,8,0.100714,3.55307
2,1,Potentiostatic EIS,10.0213,3.55307,-0.000855874,63.0956,0.0341859,-8.51748,0.0338089,0.00506331,0.567904,0.291236,0.00995617,8,0.126792,3.55307
2,1,Potentiostatic EIS,10.2366,3.55308,-0.000333095,50.1186,0.0351097,-8.5388,0.0347205,0.00521306,0.475123,0.278309,0.00977135,8,0.159621,3.55308
2,1,Potentiostatic EIS,10.4958,3.55306,-0.00107331,39.8107,0.0360383,-8.31859,0.0356592,0.00521393,0.372597,0.271963,0.0098011,8,0.200951,3.55306
2,1,Potentiostatic EIS,10.6399,3.55308,-0.00206806,31.6228,0.0369114,-8.06432,0.0365464,0.0051781,0.305584,0.268546,0.00991248,2,0.0632456,3.55308
2,1,Potentiostatic EIS,10.8019,3.55309,-0.00113511,25.1188,0.0378466,-7.57886,0.037516,0.00499161,0.290874,0.2553,0.00966199,2,0.0796217,3.55309
2,1,Potentiostatic EIS,11.0016,3.55308,-0.00126262,19.9526,0.0386615,-7.12897,0.0383626,0.00479801,0.245987,0.252679,0.0097689,2,0.100238,3.55308
2,1,Potentiostatic EIS,11.2487,3.55307,-0.00130461,15.8489,0.0393917,-6.59308,0.0391311,0.00452284,0.221991,0.249667,0.00983481,2,0.126192,3.55307
2,1,Potentiostatic EIS,11.5552,3.55308,-0.00103411,12.5892,0.0400656,-6.04741,0.0398426,0.00422096,0.224154,0.246609,0.00988054,2,0.158866,3.55308
2,1,Potentiostatic EIS,11.9367,3.55307,-0.00122093,9.99998,0.0406714,-5.46025,0.0404868,0.00387009,0.196699,0.243573,0.00990644,2,0.2,3.55307
2,1,Potentiostatic EIS,12.4117,3.55308,-0.00133459,7.94328,0.0412162,-4.92894,0.0410638,0.00354131,0.200637,0.240995,0.0099329,2,0.251785,3.55308
2,1,Potentiostatic EIS,13.0054,3.55308,-0.0013195,6.30957,0.0416457,-4.40425,0.0415227,0.0031981,0.194878,0.23859,0.00993624,2,0.316979,3.55308
2,1,Potentiostatic EIS,13.7451,3.55309,-0.00117337,5.01186,0.0420125,-3.92687,0.0419138,0.00287715,0.192573,0.236892,0.00995243,2,0.399053,3.55309
2,1,Potentiostatic EIS,14.6728,3.55308,-0.00135675,3.98106,0.0423423,-3.55458,0.0422609,0.00262519,0.191726,0.235034,0.0099519,2,0.502378,3.55308
2,1,Potentiostatic EIS,15.8375,3.55308,-0.00143576,3.16227,0.0426286,-3.20331,0.042562,0.00238205,0.182575,0.233616,0.00995873,2,0.632458,3.55308
2,1,Potentiostatic EIS,17.3002,3.55308,-0.00150568,2.51188,0.0428914,-2.93256,0.0428352,0.00219435,0.186203,0.232182,0.0099586,2,0.796216,3.55308
2,1,Potentiostatic EIS,19.1391,3.55308,-0.00150581,1.99526,0.0430809,-2.6779,0.0430339,0.00201279,0.168654,0.231145,0.00995792,2,1.00238,3.55308
2,1,Potentiostatic EIS,21.4497,3.55307,-0.00172198,1.58489,0.043296,-2.51037,0.0432544,0.00189637,0.212093,0.229961,0.00995637,2,1.26192,3.55307
2,1,Potentiostatic EIS,24.3549,3.55308,-0.00157726,1.25892,0.0435076,-2.34715,0.0434711,0.00178181,0.16858,0.228998,0.00996315,2,1.58866,3.55308
2,1,Potentiostatic EIS,28.007,3.55308,-0.00148699,0.999998,0.0436739,-2.26878,0.0436397,0.00172893,0.176278,0.228109,0.0099624,2,2,3.55308
2,1,Potentiostatic EIS,32.6015,3.55309,-0.00156279,0.794327,0.0438111,-2.2021,0.0437787,0.00168342,0.154334,0.22725,0.00995608,2,2.51785,3.55309
2,1,Potentiostatic EIS,38.3808,3.55308,-0.00141151,0.630956,0.0439572,-2.18841,0.0439251,0.00167854,0.172094,0.226637,0.00996233,2,3.16979,3.55308
2,1,Potentiostatic EIS,45.6551,3.55309,-0.00137588,0.501186,0.0440802,-2.20892,0.0440474,0.001699,0.175761,0.226084,0.0099658,2,3.99054,3.55309
2,1,Potentiostatic EIS,52.9445,3.5531,-0.00125597,0.5,0.044054,-2.24,0.0440204,0.00172187,0.188427,0.226031,0.00995758,2,4,3.5531