Folder: feature-extraction-paper-2024/Data/P190_03/EIS_06_P190_03_3

Note: README.md
# feature-extraction-paper-2024
Repository for code used and referenced in 2024 feature extraction paper

File: 2_EIS_06_P190_03_3 20230921 112730.csv
Step number,Repeats,Step name,Elapsed Time  (s),DC Working Electrode (V),DC Current (A),Frequency (Hz),|Z| (Ohms),Phase (deg),Z' (Ohms),-Z" (Ohms),THD (%),Amplitude (A),Amplitude (V),No of Cycles,Duration of Each Frequency (s),IR Compensated DC Working Electrode (V)
2,1,Potentiostatic EIS,60.2977,3.53193,-0.0157838,1000000,2.11857,87.5417,0.0908712,-2.11662,1.00036,0.00471321,0.0099851,1430,0.00143,3.53193
2,1,Potentiostatic EIS,60.8051,3.53182,-0.0187705,630957.375,1.35868,86.5493,0.0817785,-1.35622,1.21455,0.0073508,0.00998741,1355,0.00214753,3.53182
2,1,Potentiostatic EIS,61.3596,3.53168,-0.0224017,398107,0.869665,85.7017,0.0651809,-0.867219,1.47028,0.0113242,0.00984842,1400,0.00351664,3.53168
2,1,Potentiostatic EIS,62.0548,3.53153,-0.0252749,251189,0.558926,84.2791,0.055715,-0.556143,1.4047,0.017848,0.0099757,1340,0.00533464,3.53153
2,1,Potentiostatic EIS,63.1027,3.53136,-0.0295224,158489,0.359209,82.7188,0.0455255,-0.356312,1.71403,0.0275301,0.00988914,1360,0.00858102,3.53136
2,1,Potentiostatic EIS,64.3513,3.53112,-0.03507,100000,0.232331,80.5851,0.0380053,-0.229202,2.0165,0.0428775,0.0099618,1370,0.0137,3.53112
2,1,Potentiostatic EIS,65.4655,3.53162,-0.0211155,63095.7,0.15071,77.5077,0.0325997,-0.147142,4.16402,0.0661532,0.00996993,1290,0.0204451,3.53162
2,1,Potentiostatic EIS,65.9052,3.5316,-0.0210501,39810.7,0.099049,72.6392,0.029555,-0.0945368,5.26845,0.10124,0.0100277,815,0.0204719,3.5316
2,1,Potentiostatic EIS,66.3469,3.53191,-0.0127088,25118.9,0.0669143,65.1285,0.0281431,-0.0607082,6.18668,0.151333,0.0101261,510,0.0203034,3.53191
2,1,Potentiostatic EIS,66.7859,3.53199,-0.0101904,15848.9,0.0468249,55.2219,0.0267089,-0.0384604,6.75523,0.214529,0.0100454,320,0.0201906,3.53199
2,1,Potentiostatic EIS,67.3121,3.53213,-0.00793822,9999.98,0.0359176,43.2277,0.0261709,-0.0245999,2.94437,0.278014,0.00998557,307,0.0307001,3.53213
2,1,Potentiostatic EIS,67.7355,3.53217,-0.00705026,6309.57,0.0290417,31.1048,0.0248662,-0.0150031,3.8334,0.364662,0.0105904,193,0.0305885,3.53217
2,1,Potentiostatic EIS,68.1587,3.53221,-0.00600706,3981.07,0.0270806,18.5706,0.0256705,-0.00862445,3.6484,0.375677,0.0101735,122,0.0306451,3.53221
2,1,Potentiostatic EIS,68.4948,3.53223,-0.00554923,2511.88,0.0264557,10.34,0.0260261,-0.00474849,3.06256,0.393823,0.0104189,77,0.0306543,3.53223
2,1,Potentiostatic EIS,68.7903,3.53228,-0.00435395,1584.89,0.0265156,4.49103,0.0264342,-0.00207625,2.819,0.338816,0.00898393,48,0.030286,3.53228
2,1,Potentiostatic EIS,69.0362,3.53228,-0.004185,999.999,0.0269739,0.556683,0.0269726,-0.000262073,2.35226,0.379417,0.0102343,30,0.03,3.53228
2,1,Potentiostatic EIS,69.2833,3.53229,-0.00418217,630.956,0.0277549,-2.05612,0.027737,0.0009958,2.21104,0.362311,0.0100559,19,0.030113,3.53229
2,1,Potentiostatic EIS,69.4853,3.5323,-0.00378932,398.107,0.028662,-3.8188,0.0285983,0.00190892,2.01009,0.310328,0.00889461,12,0.0301427,3.5323
2,1,Potentiostatic EIS,69.6446,3.53231,-0.00358513,251.189,0.0297052,-4.84657,0.029599,0.00250972,1.60087,0.322555,0.00958156,8,0.0318486,3.53231
2,1,Potentiostatic EIS,69.8318,3.53231,-0.00353108,158.489,0.030807,-5.31339,0.0306746,0.00285283,1.21577,0.318968,0.00982645,8,0.0504766,3.53231
2,1,Potentiostatic EIS,70.0731,3.5323,-0.00346575,100,0.0319112,-5.34925,0.0317722,0.00297496,0.837369,0.310148,0.0098972,8,0.08,3.5323
2,1,Potentiostatic EIS,70.4033,3.5323,-0.00380947,63.0956,0.0329645,-5.04677,0.0328367,0.00289985,0.568326,0.30071,0.00991273,8,0.126792,3.5323
2,1,Potentiostatic EIS,70.8765,3.5323,-0.00371117,39.8107,0.0338995,-4.51049,0.0337945,0.00266591,0.36786,0.286134,0.0096998,8,0.200951,3.5323
2,1,Potentiostatic EIS,71.1819,3.53231,-0.00378049,25.1188,0.0347136,-3.86275,0.0346348,0.00233854,0.306304,0.277522,0.00963375,2,0.0796217,3.53231
2,1,Potentiostatic EIS,71.6289,3.53231,-0.00370455,15.8489,0.0353433,-3.17492,0.035289,0.00195747,0.266607,0.277594,0.0098111,2,0.126192,3.53231
2,1,Potentiostatic EIS,72.3172,3.5323,-0.00394905,9.99998,0.0358119,-2.57194,0.0357758,0.00160702,0.27674,0.27634,0.00989631,2,0.2,3.5323
2,1,Potentiostatic EIS,73.3878,3.53231,-0.00420872,6.30957,0.0361188,-2.08669,0.0360948,0.00131514,0.240552,0.274791,0.0099251,2,0.316979,3.53231
2,1,Potentiostatic EIS,75.0611,3.53231,-0.00427855,3.98106,0.0363547,-1.74587,0.0363379,0.0011076,0.224847,0.273469,0.0099419,2,0.502378,3.53231
2,1,Potentiostatic EIS,77.6892,3.53231,-0.00421288,2.51188,0.036535,-1.5663,0.0365213,0.000998637,0.21335,0.272281,0.00994777,2,0.796216,3.53231
2,1,Potentiostatic EIS,81.8382,3.53231,-0.00444347,1.58489,0.036693,-1.50555,0.0366803,0.000964061,0.240049,0.271109,0.00994776,2,1.26192,3.53231
2,1,Potentiostatic EIS,88.3947,3.53232,-0.00395841,0.999998,0.0368809,-1.54475,0.0368675,0.000994226,0.222449,0.269637,0.00994445,2,2,3.53232
2,1,Potentiostatic EIS,98.7673,3.5323,-0.00384618,0.630956,0.0371126,-1.71348,0.037096,0.00110972,0.228557,0.2682,0.00995359,2,3.16979,3.5323
2,1,Potentiostatic EIS,115.196,3.53231,-0.00374289,0.398106,0.0372984,-2.00734,0.0372755,0.00130647,0.241993,0.266782,0.00995054,2,5.02379,3.53231
2,1,Potentiostatic EIS,141.206,3.5323,-0.0027962,0.251188,0.0374588,-2.46706,0.0374241,0.00161241,0.217579,0.265629,0.00995012,2,7.96216,3.5323
2,1,Potentiostatic EIS,182.421,3.5323,-0.00193053,0.158489,0.0377687,-3.10265,0.0377134,0.00204423,0.255513,0.26343,0.0099494,2,12.6192,3.5323
2,1,Potentiostatic EIS,247.725,3.53231,-0.00194496,0.0999997,0.0381593,-3.88567,0.0380716,0.00258589,0.213682,0.260928,0.00995687,2,20.0001,3.53231