Folder: feature-extraction-paper-2024/Data/P190_03/EIS_06_P190_03_2

Note: README.md
# feature-extraction-paper-2024
Repository for code used and referenced in 2024 feature extraction paper

File: 2_EIS_06_P190_03_2 20230921 111451.csv
Step number,Repeats,Step name,Elapsed Time  (s),DC Working Electrode (V),DC Current (A),Frequency (Hz),|Z| (Ohms),Phase (deg),Z' (Ohms),-Z" (Ohms),THD (%),Amplitude (A),Amplitude (V),No of Cycles,Duration of Each Frequency (s),IR Compensated DC Working Electrode (V)
2,1,Potentiostatic EIS,60.2975,3.53536,-0.0158148,1000000,1.91368,87.3574,0.0882322,-1.91164,0.791141,0.00525507,0.0100565,1430,0.00143,3.53536
2,1,Potentiostatic EIS,60.808,3.53521,-0.0193081,630957.375,1.22849,86.4463,0.0761477,-1.22613,1.01915,0.00811255,0.00996623,1355,0.00214753,3.53521
2,1,Potentiostatic EIS,61.3612,3.53509,-0.022632,398107,0.788325,85.5011,0.0618358,-0.785896,1.20663,0.0123027,0.00969865,1400,0.00351664,3.53509
2,1,Potentiostatic EIS,62.0619,3.53493,-0.0264172,251189,0.507018,84.1268,0.0518814,-0.504357,1.47795,0.0196747,0.00997544,1340,0.00533464,3.53493
2,1,Potentiostatic EIS,62.9504,3.53475,-0.0312578,158489,0.326188,82.6575,0.0416871,-0.323514,1.69152,0.0298491,0.00973682,1360,0.00858102,3.53475
2,1,Potentiostatic EIS,64.2058,3.53447,-0.037954,100000,0.211072,80.5533,0.0346433,-0.20821,1.937,0.0472823,0.00997993,1370,0.0137,3.53447
2,1,Potentiostatic EIS,65.5379,3.53498,-0.0225963,63095.7,0.137188,77.5256,0.0296331,-0.133949,4.40653,0.0730751,0.010025,1290,0.0204451,3.53498
2,1,Potentiostatic EIS,65.9796,3.535,-0.0220482,39810.7,0.0900758,72.7084,0.0267737,-0.0860048,5.6111,0.111464,0.0100402,815,0.0204719,3.535
2,1,Potentiostatic EIS,66.4241,3.5353,-0.0131423,25118.9,0.060861,65.5689,0.0251721,-0.0554114,6.52507,0.16681,0.0101522,510,0.0203034,3.5353
2,1,Potentiostatic EIS,66.8692,3.53542,-0.00988189,15848.9,0.0422904,55.7835,0.0237808,-0.0349707,6.88623,0.237697,0.0100524,320,0.0201906,3.53542
2,1,Potentiostatic EIS,67.4539,3.53551,-0.00850493,9999.98,0.0323016,43.8019,0.0233133,-0.0223581,2.93357,0.309602,0.0100006,307,0.0307001,3.53551
2,1,Potentiostatic EIS,67.9198,3.53557,-0.00699537,6309.57,0.0258601,31.5697,0.0220329,-0.0135387,3.87772,0.371761,0.00961379,193,0.0305885,3.53557
2,1,Potentiostatic EIS,68.3438,3.53562,-0.00564575,3981.07,0.0241571,18.4866,0.0229106,-0.00765981,3.59644,0.424513,0.010255,122,0.0306451,3.53562
2,1,Potentiostatic EIS,68.6793,3.53564,-0.00486838,2511.88,0.023652,9.93474,0.0232974,-0.0040806,3.10827,0.443418,0.0104877,77,0.0306543,3.53564
2,1,Potentiostatic EIS,69.0167,3.5357,-0.00329811,1584.89,0.0237904,3.93386,0.0237343,-0.00163214,2.58112,0.424604,0.0101015,48,0.030286,3.5357
2,1,Potentiostatic EIS,69.263,3.53569,-0.00371858,999.999,0.0243242,-0.208456,0.0243241,8.84974e-05,2.34029,0.421788,0.0102597,30,0.03,3.53569
2,1,Potentiostatic EIS,69.5113,3.5357,-0.00349505,630.956,0.0251309,-2.9759,0.025097,0.00130469,2.18393,0.400661,0.010069,19,0.030113,3.5357
2,1,Potentiostatic EIS,69.7133,3.53571,-0.00289044,398.107,0.0261133,-4.78169,0.0260224,0.00217679,2.02784,0.337471,0.0088125,12,0.0301427,3.53571
2,1,Potentiostatic EIS,69.8732,3.5357,-0.00275203,251.189,0.0272148,-5.86009,0.0270726,0.00277863,1.69546,0.351316,0.00956102,8,0.0318486,3.5357
2,1,Potentiostatic EIS,70.0611,3.53571,-0.00280855,158.489,0.0284254,-6.22689,0.0282577,0.00308319,1.26201,0.346035,0.00983619,8,0.0504766,3.53571
2,1,Potentiostatic EIS,70.3044,3.5357,-0.00304442,100,0.0295815,-6.14699,0.0294114,0.00316758,0.887647,0.334848,0.00990532,8,0.08,3.5357
2,1,Potentiostatic EIS,70.6345,3.53571,-0.00287702,63.0956,0.0306694,-5.75649,0.0305147,0.00307617,0.616907,0.323227,0.00991318,8,0.126792,3.53571
2,1,Potentiostatic EIS,71.1058,3.5357,-0.00303317,39.8107,0.0316537,-5.14055,0.0315264,0.00283615,0.378444,0.306546,0.00970331,8,0.200951,3.5357
2,1,Potentiostatic EIS,71.4112,3.5357,-0.00331797,25.1188,0.0324826,-4.33688,0.0323896,0.00245635,0.2671,0.296475,0.00963006,2,0.0796217,3.5357
2,1,Potentiostatic EIS,71.8585,3.53572,-0.00285936,15.8489,0.033148,-3.5984,0.0330826,0.00208045,0.217035,0.295987,0.00981134,2,0.126192,3.53572
2,1,Potentiostatic EIS,72.5467,3.5357,-0.00348299,9.99998,0.033621,-2.8915,0.0335782,0.001696,0.172565,0.294021,0.00988527,2,0.2,3.5357
2,1,Potentiostatic EIS,73.6168,3.53571,-0.00336936,6.30957,0.0339685,-2.35817,0.0339397,0.00139767,0.184157,0.29193,0.00991642,2,0.316979,3.53571
2,1,Potentiostatic EIS,75.2903,3.53572,-0.00314544,3.98106,0.0342496,-1.92596,0.0342302,0.00115106,0.201516,0.290326,0.00994354,2,0.502378,3.53572
2,1,Potentiostatic EIS,77.9172,3.53572,-0.00331177,2.51188,0.0344494,-1.74818,0.0344334,0.00105094,0.196514,0.288647,0.00994372,2,0.796216,3.53572
2,1,Potentiostatic EIS,82.0653,3.53572,-0.00366531,1.58489,0.0346459,-1.64885,0.0346316,0.000996898,0.193139,0.287208,0.00995056,2,1.26192,3.53572
2,1,Potentiostatic EIS,88.6219,3.53571,-0.00342788,0.999998,0.0348325,-1.68278,0.0348174,0.00102289,0.18867,0.285605,0.00994834,2,2,3.53571
2,1,Potentiostatic EIS,98.9952,3.53571,-0.00321467,0.630956,0.0350385,-1.87651,0.0350197,0.00114735,0.164074,0.284063,0.00995312,2,3.16979,3.53571
2,1,Potentiostatic EIS,115.424,3.53571,-0.00335379,0.398106,0.0352695,-2.1616,0.0352444,0.0013303,0.202161,0.281979,0.00994525,2,5.02379,3.53571
2,1,Potentiostatic EIS,141.434,3.5357,-0.00221318,0.251188,0.0355427,-2.6735,0.035504,0.00165787,0.197669,0.279928,0.00994939,2,7.96216,3.5357
2,1,Potentiostatic EIS,182.648,3.53569,-0.00157059,0.158489,0.0358669,-3.31884,0.0358068,0.00207642,0.195564,0.277404,0.0099496,2,12.6192,3.53569
2,1,Potentiostatic EIS,247.952,3.5357,-0.00182712,0.0999997,0.036261,-4.17626,0.0361647,0.00264071,0.175744,0.274502,0.00995372,2,20.0001,3.5357