Folder: feature-extraction-paper-2024/Data/P190_03/EIS_08_P190_03_4

Note: README.md
# feature-extraction-paper-2024
Repository for code used and referenced in 2024 feature extraction paper

File: 2_EIS_08_P190_03_4 20231004 155413.csv
Step number,Repeats,Step name,Elapsed Time  (s),DC Working Electrode (V),DC Current (A),Frequency (Hz),|Z| (Ohms),Phase (deg),Z' (Ohms),-Z" (Ohms),THD (%),Amplitude (A),Amplitude (V),No of Cycles,Duration of Each Frequency (s),IR Compensated DC Working Electrode (V)
2,1,Potentiostatic EIS,60.2948,3.52995,-0.0136951,1000000,2.48176,87.4375,0.110957,-2.47928,1.86157,0.00402103,0.00997979,1430,0.00143,3.52995
2,1,Potentiostatic EIS,61.0171,3.52991,-0.015144,707946,1.78834,87.3897,0.0814452,-1.78649,1.91922,0.00556414,0.0099507,1340,0.0018928,3.52991
2,1,Potentiostatic EIS,61.8013,3.52981,-0.0170911,501187,1.27918,86.7756,0.071949,-1.27716,2.083,0.0077996,0.00997706,1385,0.00276344,3.52981
2,1,Potentiostatic EIS,62.7737,3.52976,-0.0188228,354813,0.915367,85.8862,0.0656668,-0.913009,1.78714,0.0108836,0.00996269,1365,0.00384709,3.52976
2,1,Potentiostatic EIS,63.7629,3.52966,-0.0211196,251189,0.657751,84.622,0.061649,-0.654856,2.28413,0.0151829,0.00998664,1340,0.00533464,3.52966
2,1,Potentiostatic EIS,65.1833,3.52951,-0.0244275,177828,0.472819,83.7357,0.0515918,-0.469995,2.24793,0.021032,0.00994439,1355,0.00761973,3.52951
2,1,Potentiostatic EIS,66.6837,3.52939,-0.0275199,125892,0.3414,82.5168,0.0444622,-0.338492,2.44887,0.0290357,0.009913,1370,0.0108823,3.52939
2,1,Potentiostatic EIS,68.4481,3.5292,-0.0322234,89125.1,0.244733,80.7258,0.039441,-0.241534,2.45791,0.0406344,0.00994447,1365,0.0153156,3.5292
2,1,Potentiostatic EIS,70.1995,3.52914,-0.0348562,63095.7,0.177873,78.8341,0.0344451,-0.174506,2.60427,0.0560621,0.00997212,1290,0.0204451,3.52914
2,1,Potentiostatic EIS,71.0202,3.52969,-0.0166371,44668.3,0.129294,75.6009,0.0321522,-0.125232,4.75834,0.0773104,0.00999557,910,0.0203724,3.52969
2,1,Potentiostatic EIS,71.6847,3.52969,-0.0165696,31622.8,0.0949987,71.8441,0.0296019,-0.0902689,5.63972,0.10579,0.0100501,645,0.0203967,3.52969
2,1,Potentiostatic EIS,72.3462,3.53004,-0.00652282,22387.2,0.0701919,67.0649,0.027353,-0.064643,6.81537,0.14244,0.00999799,455,0.0203241,3.53004
2,1,Potentiostatic EIS,73.0087,3.53012,-0.00469489,15848.9,0.0531259,60.6452,0.0260432,-0.0463046,7.27425,0.18867,0.0100235,320,0.0201906,3.53012
2,1,Potentiostatic EIS,73.6728,3.53013,-0.00346346,11220.2,0.0418524,52.7413,0.0253381,-0.0333108,6.89302,0.23983,0.010038,225,0.0200532,3.53013
2,1,Potentiostatic EIS,74.3996,3.53022,-0.00306081,7943.27,0.034384,45.1459,0.0242511,-0.024375,3.73472,0.27922,0.00960069,244,0.0307178,3.53022
2,1,Potentiostatic EIS,75.0354,3.53023,-0.00247046,5623.41,0.0286174,34.458,0.0235962,-0.0161918,4.2187,0.365893,0.0104709,172,0.0305864,3.53023
2,1,Potentiostatic EIS,75.6668,3.53027,-0.00139247,3981.07,0.0263274,24.9696,0.0238666,-0.0111138,3.99922,0.387571,0.0102037,122,0.0306451,3.53027
2,1,Potentiostatic EIS,76.2142,3.5303,-0.000817862,2818.38,0.0251131,17.3181,0.0239746,-0.00747558,3.60073,0.404061,0.0101472,86,0.030514,3.5303
2,1,Potentiostatic EIS,76.716,3.5303,-0.000422125,1995.26,0.0245979,11.1437,0.0241341,-0.00475406,3.04354,0.417189,0.010262,61,0.0305725,3.5303
2,1,Potentiostatic EIS,77.1779,3.53032,-0.000310071,1412.53,0.0245194,6.34827,0.024369,-0.00271115,2.52386,0.372086,0.00912332,43,0.0304417,3.53032
2,1,Potentiostatic EIS,77.5473,3.53034,0.000457977,999.999,0.0247422,2.76463,0.0247134,-0.0011934,2.31255,0.414715,0.010261,30,0.03,3.53034
2,1,Potentiostatic EIS,77.9172,3.53036,0.00107929,707.945,0.0251845,0.064249,0.0251845,-2.82408e-05,2.12766,0.401879,0.0101211,21,0.0296633,3.53036
2,1,Potentiostatic EIS,78.2871,3.53035,0.000571921,501.185,0.0257359,-1.87621,0.0257222,0.000842598,1.97521,0.390357,0.0100462,15,0.029929,3.53035
2,1,Potentiostatic EIS,78.5688,3.53036,0.000803022,354.813,0.0263739,-3.18918,0.0263331,0.00146726,1.82811,0.33973,0.00896001,10,0.0281839,3.53036
2,1,Potentiostatic EIS,78.8066,3.53036,0.00102105,251.188,0.0270809,-4.09806,0.0270116,0.0019353,1.59011,0.350141,0.00948211,8,0.0318487,3.53036
2,1,Potentiostatic EIS,79.0748,3.53036,0.000981582,177.828,0.0277984,-4.54379,0.027711,0.00220222,1.27788,0.350072,0.00973145,8,0.0449874,3.53036
2,1,Potentiostatic EIS,79.3926,3.53036,0.000742553,125.892,0.0285051,-4.7274,0.0284081,0.00234925,1.02001,0.34534,0.00984395,8,0.0635464,3.53036
2,1,Potentiostatic EIS,79.7817,3.53036,0.00104485,89.1248,0.02918,-4.64232,0.0290843,0.00236169,0.762997,0.338701,0.00988331,8,0.0897617,3.53036
2,1,Potentiostatic EIS,80.2761,3.53036,0.00087814,63.0956,0.0298154,-4.40811,0.0297272,0.00229162,0.582118,0.332034,0.00989974,8,0.126792,3.53036
2,1,Potentiostatic EIS,80.92,3.53036,0.00103989,44.6682,0.0303875,-4.06256,0.0303111,0.00215282,0.42854,0.319378,0.00970509,8,0.179098,3.53036
2,1,Potentiostatic EIS,81.6049,3.53036,0.000311647,31.6227,0.0308788,-3.63295,0.0308167,0.00195661,0.325765,0.320097,0.0098842,2,0.0632458,3.53036
2,1,Potentiostatic EIS,82.0927,3.53037,0.000936176,22.3871,0.0313001,-3.1685,0.0312522,0.00173004,0.298334,0.309543,0.00968859,2,0.0893371,3.53037
2,1,Potentiostatic EIS,82.7626,3.53037,0.000655718,15.8489,0.0316385,-2.72519,0.0316028,0.00150427,0.288358,0.310106,0.00981131,2,0.126192,3.53037
2,1,Potentiostatic EIS,83.6872,3.53036,0.000142689,11.2201,0.0319089,-2.30306,0.0318831,0.00128226,0.258999,0.309357,0.00987126,2,0.178251,3.53036
2,1,Potentiostatic EIS,84.9704,3.53036,-0.00062775,7.94325,0.0320086,-1.99131,0.0319893,0.00111224,0.354391,0.309458,0.00990533,2,0.251786,3.53036
2,1,Potentiostatic EIS,86.7617,3.53037,-0.000479738,5.62339,0.0322239,-1.7434,0.032209,0.000980362,0.314483,0.307878,0.00992101,2,0.355657,3.53037
2,1,Potentiostatic EIS,89.2686,3.53037,-0.000588119,3.98106,0.0323713,-1.61436,0.0323585,0.000911973,0.308784,0.307041,0.00993932,2,0.502378,3.53037
2,1,Potentiostatic EIS,92.7806,3.53036,-0.000561058,2.81837,0.0325025,-1.50479,0.0324913,0.000853529,0.290398,0.305773,0.00993836,2,0.70963,3.53036
2,1,Potentiostatic EIS,97.7213,3.53036,-0.000750134,1.99526,0.0326196,-1.48233,0.0326086,0.000843823,0.290054,0.304779,0.00994176,2,1.00238,3.53036
2,1,Potentiostatic EIS,104.68,3.53036,-0.000740727,1.41253,0.0327322,-1.48817,0.0327212,0.000850075,0.298352,0.303689,0.0099404,2,1.4159,3.53036
2,1,Potentiostatic EIS,114.493,3.53037,-0.00110401,0.999995,0.0329072,-1.57716,0.0328947,0.000905709,0.298677,0.302416,0.00995167,2,2.00001,3.53037
2,1,Potentiostatic EIS,128.337,3.53036,-0.00113354,0.707944,0.0330253,-1.74138,0.0330101,0.00100358,0.308401,0.301126,0.00994478,2,2.82508,3.53036
2,1,Potentiostatic EIS,147.876,3.53036,-0.000912264,0.501186,0.033174,-1.9787,0.0331543,0.00114543,0.298417,0.299875,0.00994805,2,3.99054,3.53036
2,1,Potentiostatic EIS,175.459,3.53036,-0.000876873,0.354812,0.033357,-2.27908,0.0333306,0.00132651,0.301367,0.298343,0.00995186,2,5.63679,3.53036
2,1,Potentiostatic EIS,214.389,3.53036,-0.000889779,0.251188,0.0335523,-2.66118,0.0335161,0.00155782,0.301448,0.296558,0.00995007,2,7.96218,3.53036
2,1,Potentiostatic EIS,269.363,3.53036,-0.000775903,0.177827,0.03371,-3.16089,0.0336587,0.00185877,0.268535,0.295221,0.0099519,2,11.2469,3.53036
2,1,Potentiostatic EIS,347.013,3.53035,-0.000861799,0.125892,0.0339387,-3.76759,0.0338654,0.00223009,0.263666,0.292975,0.00994318,2,15.8867,3.53035
2,1,Potentiostatic EIS,456.666,3.53035,-0.00072398,0.0891246,0.0342645,-4.54361,0.0341568,0.00271436,0.268314,0.290219,0.0099442,2,22.4405,3.53035
2,1,Potentiostatic EIS,611.523,3.53035,-0.000559469,0.0630955,0.0349666,-5.42331,0.0348101,0.00330481,0.259651,0.284549,0.0099497,2,31.698,3.53035
2,1,Potentiostatic EIS,821.546,3.53035,-0.000530588,0.05,0.0352253,-6.19442,0.0350196,0.00380089,0.25301,0.282477,0.00995036,2,40,3.53035