Folder: feature-extraction-paper-2024/Data/P190_03/EIS_04_P190_03_1

Note: README.md
# feature-extraction-paper-2024
Repository for code used and referenced in 2024 feature extraction paper

File: 2_EIS_04_P190_03_1 20230912 110238.csv
Step number,Repeats,Step name,Elapsed Time  (s),DC Working Electrode (V),DC Current (A),Frequency (Hz),|Z| (Ohms),Phase (deg),Z' (Ohms),-Z" (Ohms),THD (%),Amplitude (A),Amplitude (V),No of Cycles,Duration of Each Frequency (s),IR Compensated DC Working Electrode (V)
2,1,Potentiostatic EIS,0,3.51595,-0.0197413,1000000,3.43936,88.8065,0.0716358,-3.43861,0.798608,0.0028868,0.00992835,1430,0.00143,3.51595
2,1,Potentiostatic EIS,0.471469,3.51588,-0.0214383,630957.375,2.18606,87.6216,0.090721,-2.18418,0.847247,0.00452649,0.00989519,1355,0.00214753,3.51588
2,1,Potentiostatic EIS,1.02677,3.51581,-0.0230773,398107,1.39147,87.0379,0.0719057,-1.38961,0.829659,0.00716304,0.00996718,1400,0.00351664,3.51581
2,1,Potentiostatic EIS,1.69666,3.51573,-0.0247397,251189,0.888949,86.0333,0.0614945,-0.88682,0.968276,0.0112232,0.00997686,1340,0.00533464,3.51573
2,1,Potentiostatic EIS,2.57897,3.51563,-0.026973,158489,0.569276,85.0355,0.0492639,-0.56714,1.19114,0.0174796,0.00995073,1360,0.00858102,3.51563
2,1,Potentiostatic EIS,3.74882,3.51549,-0.0300166,100000,0.365449,83.7119,0.040027,-0.36325,1.52644,0.0272876,0.00997222,1370,0.0137,3.51549
2,1,Potentiostatic EIS,4.67264,3.5154,-0.0335204,63095.7,0.235787,81.9506,0.0330163,-0.233464,1.66989,0.0422818,0.00996952,1290,0.0204451,3.5154
2,1,Potentiostatic EIS,5.28819,3.51567,-0.0242947,39810.7,0.152423,79.1092,0.0287985,-0.149678,4.05273,0.0646229,0.0098504,815,0.0204719,3.51567
2,1,Potentiostatic EIS,5.7375,3.51605,-0.0110672,25118.9,0.0999316,74.7902,0.0262174,-0.0964312,5.56985,0.100579,0.0100511,510,0.0203034,3.51605
2,1,Potentiostatic EIS,6.17468,3.51609,-0.0102347,15848.9,0.0658262,68.5994,0.0240191,-0.0612877,6.78398,0.148314,0.00976314,320,0.0201906,3.51609
2,1,Potentiostatic EIS,6.64547,3.51632,-0.00906444,9999.98,0.0456533,59.7959,0.0229674,-0.0394553,3.45522,0.220007,0.010044,307,0.0307001,3.51632
2,1,Potentiostatic EIS,7.06791,3.51632,-0.00973218,6309.57,0.0325317,49.1483,0.0212791,-0.0246071,4.89278,0.322489,0.0104911,193,0.0305885,3.51632
2,1,Potentiostatic EIS,7.48781,3.51637,-0.00795874,3981.07,0.0263931,34.2342,0.0218204,-0.0148481,4.85052,0.386794,0.0102087,122,0.0306451,3.51637
2,1,Potentiostatic EIS,7.82233,3.51638,-0.00748573,2511.88,0.0236734,21.7709,0.0219849,-0.00878037,4.05512,0.443371,0.0104961,77,0.0306543,3.51638
2,1,Potentiostatic EIS,8.15699,3.51638,-0.00730113,1584.89,0.0227635,11.8846,0.0222756,-0.00468793,3.13255,0.446086,0.0101545,48,0.030286,3.51638
2,1,Potentiostatic EIS,8.40235,3.51641,-0.00637492,999.999,0.0228242,4.86251,0.0227421,-0.0019347,2.45225,0.452248,0.0103222,30,0.03,3.51641
2,1,Potentiostatic EIS,8.64989,3.51643,-0.00611391,630.956,0.0234247,0.0532544,0.0234246,-2.17724e-05,2.1224,0.430767,0.0100906,19,0.030113,3.51643
2,1,Potentiostatic EIS,8.8526,3.51643,-0.00606771,398.107,0.0243425,-3.0733,0.0243075,0.00130508,1.9903,0.353049,0.00859409,12,0.0301427,3.51643
2,1,Potentiostatic EIS,9.01302,3.51642,-0.00601847,251.189,0.0254053,-4.86071,0.025314,0.00215269,1.68585,0.372511,0.00946377,8,0.0318486,3.51642
2,1,Potentiostatic EIS,9.20351,3.51642,-0.00590764,158.489,0.0265924,-5.73929,0.0264591,0.00265929,1.30419,0.368566,0.00980103,8,0.0504766,3.51642
2,1,Potentiostatic EIS,9.44712,3.51642,-0.00542531,100,0.0277063,-5.88524,0.0275603,0.0028409,0.957156,0.356772,0.00988484,8,0.08,3.51642
2,1,Potentiostatic EIS,9.77808,3.51643,-0.00559683,63.0956,0.028762,-5.55037,0.0286272,0.00278188,0.635697,0.344266,0.00990178,8,0.126792,3.51643
2,1,Potentiostatic EIS,10.2502,3.51641,-0.00614569,39.8107,0.0296757,-4.96762,0.0295642,0.0025697,0.411384,0.327657,0.00972345,8,0.200951,3.51641
2,1,Potentiostatic EIS,10.5566,3.51643,-0.00574723,25.1188,0.0304411,-4.22145,0.0303585,0.00224082,0.323754,0.316679,0.00964009,2,0.0796217,3.51643
2,1,Potentiostatic EIS,11.0036,3.51642,-0.00602598,15.8489,0.0310348,-3.48775,0.0309774,0.00188801,1.93533,0.316242,0.00981448,2,0.126192,3.51642
2,1,Potentiostatic EIS,11.692,3.51642,-0.00619295,9.99998,0.0314782,-2.80596,0.0314404,0.00154097,0.25877,0.313905,0.00988114,2,0.2,3.51642
2,1,Potentiostatic EIS,12.7621,3.51643,-0.00625558,6.30957,0.0318026,-2.317,0.0317766,0.00128572,0.204293,0.311768,0.00991503,2,0.316979,3.51643
2,1,Potentiostatic EIS,14.4354,3.51643,-0.00580256,3.98106,0.0320487,-1.96623,0.0320298,0.00109961,0.194188,0.309907,0.0099321,2,0.502378,3.51643
2,1,Potentiostatic EIS,17.0643,3.51642,-0.00588589,2.51188,0.0322527,-1.7806,0.0322372,0.00100217,0.204642,0.308273,0.00994264,2,0.796216,3.51642
2,1,Potentiostatic EIS,21.2124,3.51643,-0.00565387,1.58489,0.0324721,-1.75351,0.0324569,0.000993639,0.185976,0.306303,0.0099463,2,1.26192,3.51643
2,1,Potentiostatic EIS,27.7683,3.51643,-0.00492686,0.999998,0.0326699,-1.82679,0.0326533,0.00104145,0.193373,0.304367,0.00994364,2,2,3.51643
2,1,Potentiostatic EIS,38.1412,3.51643,-0.00486561,0.630956,0.032892,-2.06496,0.0328707,0.00118518,0.20649,0.302435,0.0099477,2,3.16979,3.51643
2,1,Potentiostatic EIS,54.5681,3.51644,-0.0047657,0.398106,0.0331198,-2.39545,0.0330908,0.00138428,0.198397,0.300305,0.00994602,2,5.02379,3.51644
2,1,Potentiostatic EIS,80.5789,3.51644,-0.00362561,0.251188,0.0334264,-2.9426,0.0333824,0.00171596,0.203758,0.297602,0.00994776,2,7.96216,3.51644
2,1,Potentiostatic EIS,121.794,3.51643,-0.00256107,0.158489,0.0337791,-3.65935,0.0337102,0.00215593,0.196797,0.29429,0.00994083,2,12.6192,3.51643
2,1,Potentiostatic EIS,187.1,3.51643,-0.0023649,0.0999997,0.0342048,-4.62143,0.0340936,0.00275594,0.193959,0.291008,0.00995382,2,20.0001,3.51643