Folder: feature-extraction-paper-2024/Data/P190_03/EIS_04_P190_03_4

Note: README.md
# feature-extraction-paper-2024
Repository for code used and referenced in 2024 feature extraction paper

File: 2_EIS_04_P190_03_4 20230912 113836.csv
Step number,Repeats,Step name,Elapsed Time  (s),DC Working Electrode (V),DC Current (A),Frequency (Hz),|Z| (Ohms),Phase (deg),Z' (Ohms),-Z" (Ohms),THD (%),Amplitude (A),Amplitude (V),No of Cycles,Duration of Each Frequency (s),IR Compensated DC Working Electrode (V)
2,1,Potentiostatic EIS,0,3.51075,-0.0128354,1000000,1.99615,87.0763,0.101817,-1.99355,0.85253,0.00503016,0.0100408,1430,0.00143,3.51075
2,1,Potentiostatic EIS,0.503903,3.5106,-0.0161128,630957.375,1.27983,86.1,0.0870488,-1.27686,1.10101,0.00778603,0.00996476,1355,0.00214753,3.5106
2,1,Potentiostatic EIS,1.0463,3.51046,-0.0191467,398107,0.820641,84.8633,0.0734742,-0.817345,1.12463,0.0118579,0.00973106,1400,0.00351664,3.51046
2,1,Potentiostatic EIS,1.73791,3.51032,-0.0221841,251189,0.527774,83.271,0.0618409,-0.524139,1.36464,0.0188853,0.00996719,1340,0.00533464,3.51032
2,1,Potentiostatic EIS,2.75115,3.5101,-0.0267733,158489,0.340053,81.4009,0.0508446,-0.33623,1.75985,0.0287732,0.00978447,1360,0.00858102,3.5101
2,1,Potentiostatic EIS,3.99482,3.50988,-0.0315208,100000,0.221211,78.7121,0.0432995,-0.216932,1.95788,0.0450172,0.00995831,1370,0.0137,3.50988
2,1,Potentiostatic EIS,5.11212,3.5104,-0.0183494,63095.7,0.144734,74.7266,0.0381266,-0.139622,3.97241,0.0689318,0.00997682,1290,0.0204451,3.5104
2,1,Potentiostatic EIS,5.57479,3.51038,-0.0185505,39810.7,0.096467,68.796,0.0348912,-0.089936,5.19167,0.104186,0.0100506,815,0.0204719,3.51038
2,1,Potentiostatic EIS,6.03798,3.51073,-0.0101401,25118.9,0.0667392,60.2528,0.0331143,-0.0579445,6.16503,0.151675,0.0101225,510,0.0203034,3.51073
2,1,Potentiostatic EIS,6.50502,3.51083,-0.00735721,15848.9,0.0484069,49.4253,0.0314858,-0.0367679,6.44621,0.207121,0.0100263,320,0.0201906,3.51083
2,1,Potentiostatic EIS,7.04785,3.51109,-0.00576632,9999.98,0.0388842,37.4237,0.0308804,-0.0236301,2.74315,0.256697,0.00998144,307,0.0307001,3.51109
2,1,Potentiostatic EIS,7.46719,3.51113,-0.00500728,6309.57,0.0328313,26.119,0.0294786,-0.0144535,3.56116,0.319937,0.0105039,193,0.0305885,3.51113
2,1,Potentiostatic EIS,7.8474,3.5112,-0.00321287,3981.07,0.0313851,15.4025,0.0302579,-0.00833585,3.51444,0.287565,0.00902527,122,0.0306451,3.5112
2,1,Potentiostatic EIS,8.18191,3.51121,-0.00309295,2511.88,0.0308649,8.57129,0.0305202,-0.0046001,3.15481,0.33369,0.0102993,77,0.0306543,3.51121
2,1,Potentiostatic EIS,8.47365,3.51122,-0.0025366,1584.89,0.0309949,3.72052,0.0309296,-0.00201125,2.64399,0.326416,0.0101173,48,0.030286,3.51122
2,1,Potentiostatic EIS,8.72195,3.51125,-0.00200306,999.999,0.0314359,0.46065,0.0314349,-0.000252737,2.4324,0.323746,0.0101773,30,0.03,3.51125
2,1,Potentiostatic EIS,8.96929,3.51127,-0.00197108,630.956,0.0321592,-1.77358,0.0321438,0.000995321,2.23448,0.312085,0.0100364,19,0.030113,3.51127
2,1,Potentiostatic EIS,9.12701,3.51126,-0.00186711,398.107,0.0330855,-3.28195,0.0330312,0.00189413,1.96109,0.273246,0.00904047,12,0.0301427,3.51126
2,1,Potentiostatic EIS,9.2872,3.51126,-0.00172905,251.189,0.0340843,-4.14327,0.0339953,0.00246262,1.5597,0.282198,0.00961854,8,0.0318486,3.51126
2,1,Potentiostatic EIS,9.475,3.51127,-0.00156436,158.489,0.035178,-4.4698,0.035071,0.00274155,1.12854,0.279654,0.00983767,8,0.0504766,3.51127
2,1,Potentiostatic EIS,9.71534,3.51127,-0.0016778,100,0.0362359,-4.45205,0.0361265,0.0028128,0.779409,0.273359,0.0099054,8,0.08,3.51127
2,1,Potentiostatic EIS,10.0448,3.51126,-0.00177845,63.0956,0.0372186,-4.16797,0.0371201,0.00270507,0.531002,0.266582,0.00992179,8,0.126792,3.51126
2,1,Potentiostatic EIS,10.5158,3.51127,-0.0017523,39.8107,0.0380804,-3.69541,0.0380012,0.00245437,0.322948,0.255767,0.00973973,8,0.200951,3.51127
2,1,Potentiostatic EIS,10.8229,3.51127,-0.00190365,25.1188,0.0387804,-3.13586,0.0387223,0.00212143,0.271342,0.248804,0.00964873,2,0.0796217,3.51127
2,1,Potentiostatic EIS,11.2703,3.51126,-0.00201885,15.8489,0.0393359,-2.59339,0.0392956,0.00177986,0.230886,0.249698,0.00982209,2,0.126192,3.51126
2,1,Potentiostatic EIS,11.9583,3.51126,-0.00213746,9.99998,0.0397414,-2.10912,0.0397145,0.00146259,0.184534,0.249144,0.00990132,2,0.2,3.51126
2,1,Potentiostatic EIS,13.0274,3.51127,-0.00222482,6.30957,0.0400257,-1.73875,0.0400072,0.00121447,0.184236,0.248069,0.00992912,2,0.316979,3.51127
2,1,Potentiostatic EIS,14.6943,3.51127,-0.00211864,3.98106,0.0402542,-1.49668,0.0402405,0.0010514,0.188471,0.247245,0.00995267,2,0.502378,3.51127
2,1,Potentiostatic EIS,17.321,3.51127,-0.00232571,2.51188,0.0404555,-1.37878,0.0404438,0.00097344,0.154279,0.246156,0.00995838,2,0.796216,3.51127
2,1,Potentiostatic EIS,21.4682,3.51128,-0.00245377,1.58489,0.040678,-1.34123,0.0406669,0.000952143,0.200804,0.244949,0.00996406,2,1.26192,3.51128
2,1,Potentiostatic EIS,28.0248,3.51126,-0.00235393,0.999998,0.0408648,-1.40802,0.0408524,0.00100413,0.178478,0.243742,0.00996047,2,2,3.51126
2,1,Potentiostatic EIS,38.3975,3.51127,-0.00244213,0.630956,0.0410372,-1.58589,0.0410215,0.00113572,0.159694,0.242789,0.0099634,2,3.16979,3.51127
2,1,Potentiostatic EIS,54.8264,3.51126,-0.00251115,0.398106,0.0413093,-1.8714,0.0412873,0.00134901,0.181229,0.241041,0.00995723,2,5.02379,3.51126
2,1,Potentiostatic EIS,80.8374,3.51124,-0.00176611,0.251188,0.041639,-2.30487,0.0416053,0.00167459,0.163017,0.239182,0.0099593,2,7.96216,3.51124
2,1,Potentiostatic EIS,122.052,3.51126,-0.00103646,0.158489,0.042,-2.88856,0.0419466,0.00211653,0.201173,0.237031,0.0099553,2,12.6192,3.51126
2,1,Potentiostatic EIS,187.358,3.51124,-0.00137107,0.0999997,0.0423892,-3.61782,0.0423047,0.0026748,0.188483,0.234908,0.00995751,2,20.0001,3.51124