Folder: feature-extraction-paper-2024/Data/P190_03/EIS_06_P190_03_1

Note: README.md
# feature-extraction-paper-2024
Repository for code used and referenced in 2024 feature extraction paper

File: 2_EIS_06_P190_03_1 20230921 110304.csv
Step number,Repeats,Step name,Elapsed Time  (s),DC Working Electrode (V),DC Current (A),Frequency (Hz),|Z| (Ohms),Phase (deg),Z' (Ohms),-Z" (Ohms),THD (%),Amplitude (A),Amplitude (V),No of Cycles,Duration of Each Frequency (s),IR Compensated DC Working Electrode (V)
2,1,Potentiostatic EIS,60.2991,3.53732,-0.0151492,1000000,3.56161,88.6537,0.0836813,-3.56063,0.761202,0.00277586,0.00988655,1430,0.00143,3.53732
2,1,Potentiostatic EIS,60.7667,3.53723,-0.0167549,630957.375,2.27941,87.7154,0.0908664,-2.2776,0.773366,0.0043618,0.00994235,1355,0.00214753,3.53723
2,1,Potentiostatic EIS,61.2957,3.53715,-0.0186693,398107,1.45368,87.0806,0.0740372,-1.4518,0.869878,0.00685321,0.00996239,1400,0.00351664,3.53715
2,1,Potentiostatic EIS,61.9306,3.53708,-0.020245,251189,0.928321,85.9905,0.0649107,-0.926049,0.881615,0.0107453,0.00997506,1340,0.00533464,3.53708
2,1,Potentiostatic EIS,62.8104,3.53695,-0.0227614,158489,0.595509,84.9372,0.052552,-0.593186,1.17284,0.0167349,0.00996578,1360,0.00858102,3.53695
2,1,Potentiostatic EIS,63.9775,3.53682,-0.0257203,100000,0.381843,83.5094,0.0431634,-0.379395,1.57029,0.0261031,0.00996733,1370,0.0137,3.53682
2,1,Potentiostatic EIS,64.8952,3.5367,-0.0285635,63095.7,0.245674,81.5117,0.0362634,-0.242983,1.6126,0.0406504,0.00998681,1290,0.0204451,3.5367
2,1,Potentiostatic EIS,65.416,3.53658,-0.0310887,39810.7,0.158843,78.2252,0.0324144,-0.155501,1.78796,0.062464,0.00992196,815,0.0204719,3.53658
2,1,Potentiostatic EIS,65.9777,3.53742,-0.00834432,25118.9,0.104587,73.3448,0.0299757,-0.100199,5.29626,0.0960539,0.010046,510,0.0203034,3.53742
2,1,Potentiostatic EIS,66.386,3.53746,-0.00699027,15848.9,0.069471,66.4412,0.0277668,-0.0636806,6.58393,0.141253,0.00981301,320,0.0201906,3.53746
2,1,Potentiostatic EIS,66.8501,3.53752,-0.00658923,9999.98,0.0488685,56.8688,0.0267094,-0.0409235,3.35303,0.204542,0.00999567,307,0.0307001,3.53752
2,1,Potentiostatic EIS,67.2748,3.53753,-0.00632584,6309.57,0.0357638,45.5791,0.0250319,-0.0255431,4.71738,0.292056,0.010445,193,0.0305885,3.53753
2,1,Potentiostatic EIS,67.6975,3.53759,-0.00467911,3981.07,0.029869,31.0358,0.0255932,-0.0153997,4.58165,0.33982,0.0101501,122,0.0306451,3.53759
2,1,Potentiostatic EIS,68.0342,3.53761,-0.00454207,2511.88,0.0272936,19.4587,0.0257346,-0.00909224,3.80405,0.381492,0.0104123,77,0.0306543,3.53761
2,1,Potentiostatic EIS,68.3253,3.53761,-0.0042514,1584.89,0.0264846,10.5687,0.0260353,-0.00485767,3.02146,0.323868,0.0085775,48,0.030286,3.53761
2,1,Potentiostatic EIS,68.5739,3.53763,-0.00348648,999.999,0.0266029,4.31871,0.0265273,-0.00200331,2.44628,0.385224,0.0102481,30,0.03,3.53763
2,1,Potentiostatic EIS,68.8229,3.53763,-0.00337695,630.956,0.027239,0.036164,0.027239,-1.71928e-05,2.13203,0.369886,0.0100753,19,0.030113,3.53763
2,1,Potentiostatic EIS,69.0261,3.53765,-0.00302276,398.107,0.0281717,-2.76963,0.0281388,0.00136126,1.96768,0.312437,0.00880189,12,0.0301427,3.53765
2,1,Potentiostatic EIS,69.1853,3.53763,-0.00330683,251.189,0.0292725,-4.4708,0.0291834,0.00228182,1.59513,0.326226,0.00954944,8,0.0318486,3.53763
2,1,Potentiostatic EIS,69.3734,3.53764,-0.00314774,158.489,0.0304702,-5.30595,0.0303397,0.0028177,1.2167,0.322327,0.00982139,8,0.0504766,3.53764
2,1,Potentiostatic EIS,69.6151,3.53764,-0.00304264,100,0.0316928,-5.57027,0.0315431,0.0030763,0.88632,0.312427,0.00990167,8,0.08,3.53764
2,1,Potentiostatic EIS,69.9456,3.53765,-0.00300189,63.0956,0.0328504,-5.30769,0.0327095,0.00303879,0.580394,0.301941,0.00991887,8,0.126792,3.53765
2,1,Potentiostatic EIS,70.4188,3.53763,-0.00354084,39.8107,0.0338599,-4.82346,0.03374,0.00284714,0.361429,0.287747,0.00974309,8,0.200951,3.53763
2,1,Potentiostatic EIS,70.7245,3.53766,-0.00319946,25.1188,0.0347356,-4.08614,0.0346473,0.00247512,0.254317,0.27766,0.00964463,2,0.0796217,3.53766
2,1,Potentiostatic EIS,71.1718,3.53766,-0.00323019,15.8489,0.0354012,-3.3977,0.035339,0.0020981,0.230469,0.277481,0.00982312,2,0.126192,3.53766
2,1,Potentiostatic EIS,71.8599,3.53765,-0.00342849,9.99998,0.0358997,-2.74446,0.0358585,0.00171893,0.248101,0.275807,0.00990141,2,0.2,3.53765
2,1,Potentiostatic EIS,72.93,3.53766,-0.00342246,6.30957,0.0362583,-2.20614,0.0362315,0.00139576,0.211972,0.273725,0.00992482,2,0.316979,3.53766
2,1,Potentiostatic EIS,74.6037,3.53766,-0.00346029,3.98106,0.036505,-1.84343,0.0364861,0.0011743,0.181374,0.272301,0.00994035,2,0.502378,3.53766
2,1,Potentiostatic EIS,77.231,3.53766,-0.00360549,2.51188,0.0367183,-1.65359,0.036703,0.00105956,0.201853,0.270987,0.00995017,2,0.796216,3.53766
2,1,Potentiostatic EIS,81.3796,3.53766,-0.00360502,1.58489,0.036897,-1.57019,0.0368831,0.00101104,0.198388,0.269723,0.00995197,2,1.26192,3.53766
2,1,Potentiostatic EIS,87.9356,3.53766,-0.00341905,0.999998,0.0370915,-1.61283,0.0370768,0.00104396,0.189419,0.268356,0.0099537,2,2,3.53766
2,1,Potentiostatic EIS,98.3092,3.53765,-0.00348852,0.630956,0.037261,-1.78582,0.0372429,0.00116118,0.198094,0.267226,0.0099571,2,3.16979,3.53765
2,1,Potentiostatic EIS,114.738,3.53765,-0.00315965,0.398106,0.0374347,-2.07542,0.0374102,0.0013557,0.165802,0.265854,0.00995217,2,5.02379,3.53765
2,1,Potentiostatic EIS,140.749,3.53765,-0.00209467,0.251188,0.0377349,-2.54323,0.0376978,0.00167442,0.177951,0.263869,0.00995707,2,7.96216,3.53765
2,1,Potentiostatic EIS,181.964,3.53765,-0.00152795,0.158489,0.0380735,-3.15188,0.0380159,0.0020934,0.184828,0.261591,0.00995965,2,12.6192,3.53765
2,1,Potentiostatic EIS,247.269,3.53764,-0.00190556,0.0999997,0.0384913,-3.99574,0.0383978,0.00268217,0.184125,0.258697,0.00995757,2,20.0001,3.53764