Folder: feature-extraction-paper-2024/Data/P190_03/EIS_02_P190_03_1

Note: README.md
# feature-extraction-paper-2024
Repository for code used and referenced in 2024 feature extraction paper

File: 2_EIS_02_P190_03_1 20230907 102121.csv
Step number,Repeats,Step name,Elapsed Time  (s),DC Working Electrode (V),DC Current (A),Frequency (Hz),|Z| (Ohms),Phase (deg),Z' (Ohms),-Z" (Ohms),THD (%),Amplitude (A),Amplitude (V),No of Cycles,Duration of Each Frequency (s),IR Compensated DC Working Electrode (V)
2,1,Potentiostatic EIS,0,3.46036,-0.0122149,1000000,2.62815,87.3053,0.123558,-2.62525,0.836489,0.00377568,0.00992266,1430,0.00143,3.46036
2,1,Potentiostatic EIS,0.485707,3.46027,-0.0146018,630957.375,1.67783,86.5398,0.101265,-1.67477,0.886509,0.00593338,0.00995525,1355,0.00214753,3.46027
2,1,Potentiostatic EIS,1.03624,3.46016,-0.0167265,398107,1.07544,85.63,0.0819456,-1.07231,1.00981,0.00925569,0.00995389,1400,0.00351664,3.46016
2,1,Potentiostatic EIS,1.84984,3.46005,-0.0191491,251189,0.690919,84.4726,0.0665505,-0.687707,1.17282,0.0144289,0.00996921,1340,0.00533464,3.46005
2,1,Potentiostatic EIS,2.92601,3.45991,-0.0217311,158489,0.444916,83.223,0.0525025,-0.441807,1.37123,0.0223361,0.0099377,1360,0.00858102,3.45991
2,1,Potentiostatic EIS,4.08041,3.45974,-0.0256992,100000,0.287933,81.5689,0.0422166,-0.284822,1.77872,0.0337152,0.00970816,1370,0.0137,3.45974
2,1,Potentiostatic EIS,4.99443,3.45958,-0.0293063,63095.7,0.187556,79.3865,0.0345446,-0.184347,1.96378,0.0518245,0.0097203,1290,0.0204451,3.45958
2,1,Potentiostatic EIS,5.6894,3.46007,-0.0152167,39810.7,0.12262,75.8375,0.0300019,-0.118894,4.79863,0.0815339,0.00999784,815,0.0204719,3.46007
2,1,Potentiostatic EIS,6.15285,3.46042,-0.00615711,25118.9,0.0816693,70.4864,0.0272801,-0.0769784,6.13659,0.123669,0.0101,510,0.0203034,3.46042
2,1,Potentiostatic EIS,6.6047,3.46048,-0.00452216,15848.9,0.0550697,63.0759,0.0249361,-0.0491005,6.86687,0.181974,0.0100212,320,0.0201906,3.46048
2,1,Potentiostatic EIS,7.13411,3.46071,-0.00362362,9999.98,0.0396749,53.1367,0.0238013,-0.0317427,3.32166,0.251721,0.00998702,307,0.0307001,3.46071
2,1,Potentiostatic EIS,7.5584,3.46071,-0.00381935,6309.57,0.029676,41.8605,0.0221018,-0.0198033,4.50433,0.355602,0.0105528,193,0.0305885,3.46071
2,1,Potentiostatic EIS,7.98163,3.46078,-0.00237125,3981.07,0.0254513,27.4128,0.0225934,-0.0117177,4.38095,0.402386,0.0102412,122,0.0306451,3.46078
2,1,Potentiostatic EIS,8.31768,3.46081,-0.00137595,2511.88,0.023731,16.4618,0.0227582,-0.00672477,3.7124,0.44189,0.0104865,77,0.0306543,3.46081
2,1,Potentiostatic EIS,8.65282,3.46083,-0.000931172,1584.89,0.0233295,8.19197,0.0230914,-0.00332422,2.8674,0.434077,0.0101268,48,0.030286,3.46083
2,1,Potentiostatic EIS,8.90015,3.46083,-0.000984332,999.999,0.0236226,2.30825,0.0236035,-0.000951417,2.37256,0.435967,0.0102987,30,0.03,3.46083
2,1,Potentiostatic EIS,9.14688,3.46085,-0.000503212,630.956,0.0243528,-1.73583,0.0243416,0.000737679,2.16225,0.413874,0.010079,19,0.030113,3.46085
2,1,Potentiostatic EIS,9.35015,3.46085,-0.000247454,398.107,0.0253699,-4.39935,0.0252951,0.00194607,2.04809,0.344033,0.00872808,12,0.0301427,3.46085
2,1,Potentiostatic EIS,9.5097,3.46086,-0.000105011,251.189,0.0265731,-6.03236,0.026426,0.00279257,1.74744,0.359434,0.00955128,8,0.0318486,3.46086
2,1,Potentiostatic EIS,9.70108,3.46085,4.21149e-05,158.489,0.0278831,-6.82843,0.0276854,0.00331521,1.3438,0.35288,0.00983941,8,0.0504766,3.46085
2,1,Potentiostatic EIS,9.94123,3.46084,-0.000416863,100,0.0291992,-7.03609,0.0289793,0.00357674,0.957344,0.339496,0.00991299,8,0.08,3.46084
2,1,Potentiostatic EIS,10.2702,3.46084,-5.91506e-05,63.0956,0.0304588,-6.73733,0.0302485,0.00357336,0.620117,0.325767,0.00992247,8,0.126792,3.46084
2,1,Potentiostatic EIS,10.7415,3.46084,-0.00061626,39.8107,0.0316076,-6.26799,0.0314187,0.00345088,0.409532,0.306346,0.00968286,8,0.200951,3.46084
2,1,Potentiostatic EIS,11.0463,3.46083,-0.001248,25.1188,0.0326568,-5.66365,0.0324974,0.00322285,0.760738,0.294913,0.00963081,2,0.0796217,3.46083
2,1,Potentiostatic EIS,11.4931,3.46084,-0.00054881,15.8489,0.0335923,-5.04871,0.033462,0.00295621,0.757728,0.292217,0.00981627,2,0.126192,3.46084
2,1,Potentiostatic EIS,12.1814,3.46083,-0.0012709,9.99998,0.034382,-4.39918,0.0342807,0.00263726,0.214273,0.287605,0.00988845,2,0.2,3.46083
2,1,Potentiostatic EIS,13.2518,3.46084,-0.00143506,6.30957,0.0350544,-3.81207,0.0349768,0.00233056,0.213154,0.283,0.00992038,2,0.316979,3.46084
2,1,Potentiostatic EIS,14.9253,3.46084,-0.00117739,3.98106,0.0356211,-3.34555,0.0355604,0.00207877,0.211755,0.279185,0.00994487,2,0.502378,3.46084
2,1,Potentiostatic EIS,17.5538,3.46086,-0.00113833,2.51188,0.0360834,-3.05893,0.036032,0.00192552,0.155607,0.275659,0.00994671,2,0.796216,3.46086
2,1,Potentiostatic EIS,21.7016,3.46086,-0.00138141,1.58489,0.0365128,-2.88909,0.0364663,0.00184034,0.172488,0.272573,0.00995241,2,1.26192,3.46086
2,1,Potentiostatic EIS,28.257,3.46084,-0.00123213,0.999998,0.0369108,-2.91036,0.0368632,0.00187409,0.19017,0.269598,0.00995107,2,2,3.46084
2,1,Potentiostatic EIS,38.6298,3.46083,-0.00151193,0.630956,0.0373491,-3.1063,0.0372943,0.0020239,0.158661,0.26653,0.00995468,2,3.16979,3.46083
2,1,Potentiostatic EIS,55.0582,3.46084,-0.0017036,0.398106,0.0377906,-3.49632,0.0377203,0.00230464,0.18206,0.26343,0.00995516,2,5.02379,3.46084
2,1,Potentiostatic EIS,81.0676,3.46083,-0.000910027,0.251188,0.0383409,-4.08775,0.0382433,0.0027331,0.234382,0.259699,0.00995708,2,7.96216,3.46083
2,1,Potentiostatic EIS,122.281,3.46082,-0.00111849,0.158489,0.0397715,-4.91909,0.039625,0.00341036,0.764617,0.250366,0.00995715,2,12.6192,3.46082
2,1,Potentiostatic EIS,187.586,3.46082,-0.00129445,0.0999997,0.0405502,-6.03018,0.0403258,0.00425988,0.203888,0.245509,0.0099554,2,20.0001,3.46082