Folder: feature-extraction-paper-2024/Data/P190_03/EIS_08_P190_03_1

Note: README.md
# feature-extraction-paper-2024
Repository for code used and referenced in 2024 feature extraction paper

File: 2_EIS_08_P190_03_1 20231004 141333.csv
Step number,Repeats,Step name,Elapsed Time  (s),DC Working Electrode (V),DC Current (A),Frequency (Hz),|Z| (Ohms),Phase (deg),Z' (Ohms),-Z" (Ohms),THD (%),Amplitude (A),Amplitude (V),No of Cycles,Duration of Each Frequency (s),IR Compensated DC Working Electrode (V)
2,1,Potentiostatic EIS,60.3018,3.53679,-0.0158569,1000000,3.43119,88.7156,0.0769085,-3.43033,0.78825,0.00290482,0.00996698,1430,0.00143,3.53679
2,1,Potentiostatic EIS,60.9952,3.53674,-0.0167383,707946,2.45682,88.3489,0.0707873,-2.4558,0.706824,0.00404128,0.00992874,1340,0.0018928,3.53674
2,1,Potentiostatic EIS,61.7249,3.53668,-0.0178029,501187,1.75135,87.8705,0.0650772,-1.75014,0.771265,0.00550693,0.00964426,1385,0.00276344,3.53668
2,1,Potentiostatic EIS,62.5582,3.53666,-0.0188175,354813,1.24528,87.0083,0.0649924,-1.24358,0.775142,0.00797156,0.00992679,1365,0.00384709,3.53666
2,1,Potentiostatic EIS,63.5214,3.53656,-0.020783,251189,0.894035,86.1354,0.0602568,-0.892002,0.960729,0.011166,0.00998283,1340,0.00533464,3.53656
2,1,Potentiostatic EIS,64.8123,3.53651,-0.0219594,177828,0.638209,85.5714,0.0492804,-0.636304,1.16054,0.0156155,0.00996601,1355,0.00761973,3.53651
2,1,Potentiostatic EIS,66.3064,3.53641,-0.02413,125892,0.45877,84.532,0.0437157,-0.456682,1.25519,0.0217207,0.00996481,1370,0.0108823,3.53641
2,1,Potentiostatic EIS,68.305,3.53629,-0.0264473,89125.1,0.328664,83.4056,0.0377438,-0.32649,1.45579,0.0304274,0.0100004,1365,0.0153156,3.53629
2,1,Potentiostatic EIS,69.9554,3.53619,-0.0283491,63095.7,0.235507,81.732,0.0338667,-0.233059,1.56408,0.0423898,0.00998312,1290,0.0204451,3.53619
2,1,Potentiostatic EIS,70.7095,3.53615,-0.0299648,44668.3,0.169544,79.1748,0.0318428,-0.166527,1.72893,0.0583872,0.00989928,910,0.0203724,3.53615
2,1,Potentiostatic EIS,71.6096,3.53656,-0.0166141,31622.8,0.12322,76.387,0.0290012,-0.119758,4.84839,0.0812372,0.01001,645,0.0203967,3.53656
2,1,Potentiostatic EIS,72.2526,3.53693,-0.00637951,22387.2,0.0891651,72.3548,0.0270279,-0.08497,5.8561,0.111753,0.00996438,455,0.0203241,3.53693
2,1,Potentiostatic EIS,72.8797,3.53701,-0.00494125,15848.9,0.0660235,66.8156,0.025993,-0.0606916,6.63431,0.147663,0.00974924,320,0.0201906,3.53701
2,1,Potentiostatic EIS,73.4911,3.537,-0.00465281,11220.2,0.0503697,59.3703,0.0256628,-0.043342,6.8816,0.195616,0.00985303,225,0.0200532,3.537
2,1,Potentiostatic EIS,74.175,3.53701,-0.00522448,7943.27,0.039788,51.9627,0.0245164,-0.0313374,4.10953,0.265571,0.0105665,244,0.0307178,3.53701
2,1,Potentiostatic EIS,74.8123,3.53706,-0.00390097,5623.41,0.0318209,41.4745,0.0238419,-0.0210746,4.80944,0.325683,0.0103635,172,0.0305864,3.53706
2,1,Potentiostatic EIS,75.4451,3.53708,-0.00342527,3981.07,0.0283242,30.9545,0.0242901,-0.0145687,4.54607,0.359125,0.0101719,122,0.0306451,3.53708
2,1,Potentiostatic EIS,75.9489,3.53711,-0.00277406,2818.38,0.0263664,21.922,0.02446,-0.00984373,3.95276,0.396408,0.0104519,86,0.030514,3.53711
2,1,Potentiostatic EIS,76.4511,3.53712,-0.00266927,1995.26,0.0254691,14.577,0.0246493,-0.00641008,3.31984,0.402176,0.0102431,61,0.0305725,3.53712
2,1,Potentiostatic EIS,76.9093,3.53714,-0.00236057,1412.53,0.0252285,8.73857,0.0249356,-0.00383287,2.81456,0.365057,0.00920982,43,0.0304417,3.53714
2,1,Potentiostatic EIS,77.2794,3.53711,-0.00278409,999.999,0.0253995,4.37946,0.0253253,-0.00193954,2.34718,0.404142,0.010265,30,0.03,3.53711
2,1,Potentiostatic EIS,77.6517,3.53716,-0.00117628,707.945,0.0258106,1.15014,0.0258054,-0.000518082,2.11712,0.391246,0.0100983,21,0.0296633,3.53716
2,1,Potentiostatic EIS,78.0198,3.53715,-0.00124608,501.185,0.0263914,-1.2189,0.0263854,0.000561402,1.97521,0.380663,0.0100462,15,0.029929,3.53715
2,1,Potentiostatic EIS,78.2991,3.53714,-0.00176215,354.813,0.0270733,-2.85121,0.0270398,0.00134669,1.84251,0.331644,0.0089787,10,0.0281839,3.53714
2,1,Potentiostatic EIS,78.5385,3.53715,-0.00160876,251.188,0.0278245,-3.87439,0.027761,0.00188009,1.60401,0.341214,0.00949413,8,0.0318487,3.53715
2,1,Potentiostatic EIS,78.8045,3.53716,-0.00138048,177.828,0.0285786,-4.41677,0.0284938,0.00220087,1.30567,0.340726,0.0097375,8,0.0449874,3.53716
2,1,Potentiostatic EIS,79.1224,3.53715,-0.00154793,125.892,0.0293401,-4.66751,0.0292428,0.0023875,1.03584,0.335554,0.00984518,8,0.0635464,3.53715
2,1,Potentiostatic EIS,79.5122,3.53715,-0.00153928,89.1248,0.030058,-4.61241,0.0299606,0.00241711,0.777187,0.328859,0.00988483,8,0.0897617,3.53715
2,1,Potentiostatic EIS,80.0046,3.53716,-0.00107858,63.0956,0.030726,-4.40876,0.0306351,0.00236196,0.564537,0.322111,0.00989719,8,0.126792,3.53716
2,1,Potentiostatic EIS,80.651,3.53716,-0.00128068,44.6682,0.0313197,-4.05676,0.0312412,0.0022157,0.407716,0.311356,0.00975157,8,0.179098,3.53716
2,1,Potentiostatic EIS,81.3375,3.53717,-0.0018916,31.6227,0.0318539,-3.64743,0.0317894,0.00202644,0.316859,0.310746,0.00989847,2,0.0632458,3.53717
2,1,Potentiostatic EIS,81.8264,3.53716,-0.00152833,22.3871,0.0322801,-3.17914,0.0322304,0.00179019,0.251503,0.299946,0.00968244,2,0.0893371,3.53716
2,1,Potentiostatic EIS,82.4954,3.53716,-0.00172765,15.8489,0.0326318,-2.74026,0.0325945,0.00156007,0.253661,0.300957,0.00982071,2,0.126192,3.53716
2,1,Potentiostatic EIS,83.4197,3.53716,-0.001875,11.2201,0.03291,-2.30724,0.0328833,0.00132489,0.226618,0.30008,0.00987559,2,0.178251,3.53716
2,1,Potentiostatic EIS,84.7024,3.53717,-0.00184561,7.94325,0.0331272,-1.99794,0.0331071,0.00115493,0.204591,0.299302,0.00991504,2,0.251786,3.53717
2,1,Potentiostatic EIS,86.4918,3.53717,-0.00206125,5.62339,0.0333099,-1.73843,0.0332946,0.00101052,0.205716,0.298043,0.00992777,2,0.355657,3.53717
2,1,Potentiostatic EIS,88.995,3.53718,-0.00209742,3.98106,0.0334399,-1.5818,0.0334271,0.000923078,0.19574,0.297221,0.00993904,2,0.502378,3.53718
2,1,Potentiostatic EIS,92.5043,3.53717,-0.00230047,2.81837,0.0335776,-1.4775,0.0335665,0.000865777,0.205826,0.296044,0.00994045,2,0.70963,3.53717
2,1,Potentiostatic EIS,97.4456,3.53716,-0.00250526,1.99526,0.03371,-1.45486,0.0336991,0.000855874,0.199263,0.29513,0.0099488,2,1.00238,3.53716
2,1,Potentiostatic EIS,104.404,3.53716,-0.00242627,1.41253,0.0338266,-1.4764,0.0338153,0.000871548,0.220786,0.294111,0.00994877,2,1.4159,3.53716
2,1,Potentiostatic EIS,114.217,3.53717,-0.00217264,0.999995,0.0339554,-1.54905,0.033943,0.00091791,0.190101,0.293009,0.00994925,2,2.00001,3.53717
2,1,Potentiostatic EIS,128.062,3.53717,-0.00212404,0.707944,0.0341078,-1.73226,0.0340923,0.00103105,0.208037,0.291763,0.0099514,2,2.82508,3.53717
2,1,Potentiostatic EIS,147.599,3.53717,-0.00198132,0.501186,0.0342479,-1.94028,0.0342283,0.00115956,0.196444,0.290613,0.0099529,2,3.99054,3.53717
2,1,Potentiostatic EIS,175.184,3.53717,-0.00178388,0.354812,0.0344295,-2.26369,0.0344026,0.00135992,0.178736,0.28905,0.00995185,2,5.63679,3.53717
2,1,Potentiostatic EIS,214.114,3.53716,-0.00170128,0.251188,0.0346487,-2.60997,0.0346128,0.00157779,0.191226,0.287089,0.00994727,2,7.96218,3.53716
2,1,Potentiostatic EIS,269.087,3.53716,-0.00157138,0.177827,0.0349026,-3.08223,0.0348521,0.00187668,0.200372,0.284979,0.00994649,2,11.2469,3.53716
2,1,Potentiostatic EIS,346.736,3.53715,-0.00123526,0.125892,0.0352027,-3.69202,0.0351297,0.00226682,0.191596,0.282624,0.00994911,2,15.8867,3.53715
2,1,Potentiostatic EIS,456.389,3.53717,-0.000435224,0.0891246,0.0355611,-4.42178,0.0354553,0.00274169,0.182819,0.280049,0.00995886,2,22.4405,3.53717
2,1,Potentiostatic EIS,611.245,3.53716,-0.000271725,0.0630955,0.0359593,-5.33203,0.0358037,0.0033416,0.201118,0.276672,0.0099489,2,31.698,3.53716
2,1,Potentiostatic EIS,821.267,3.53717,-8.03721e-05,0.05,0.0364787,-6.02216,0.0362774,0.0038271,0.182408,0.272883,0.0099544,2,40,3.53717