Folder: feature-extraction-paper-2024/Data/P190_03/EIS_08_P190_03_2

Note: README.md
# feature-extraction-paper-2024
Repository for code used and referenced in 2024 feature extraction paper

File: 2_EIS_08_P190_03_2 20231004 144812.csv
Step number,Repeats,Step name,Elapsed Time  (s),DC Working Electrode (V),DC Current (A),Frequency (Hz),|Z| (Ohms),Phase (deg),Z' (Ohms),-Z" (Ohms),THD (%),Amplitude (A),Amplitude (V),No of Cycles,Duration of Each Frequency (s),IR Compensated DC Working Electrode (V)
2,1,Potentiostatic EIS,60.2977,3.53423,-0.0133326,1000000,1.23302,84.7325,0.113198,-1.22781,0.835012,0.00814736,0.0100458,1430,0.00143,3.53423
2,1,Potentiostatic EIS,61.0618,3.53407,-0.0178749,707946,0.893543,84.3276,0.0883179,-0.889167,1.05738,0.0111628,0.0099744,1340,0.0018928,3.53407
2,1,Potentiostatic EIS,61.908,3.53393,-0.0215046,501187,0.645471,83.545,0.0725654,-0.641379,1.30567,0.0154582,0.00997781,1385,0.00276344,3.53393
2,1,Potentiostatic EIS,62.8826,3.53379,-0.0250365,354813,0.464183,82.2128,0.0628942,-0.459903,1.60591,0.0214043,0.00993551,1365,0.00384709,3.53379
2,1,Potentiostatic EIS,64.0409,3.53359,-0.0300868,251189,0.337801,80.7462,0.0543213,-0.333405,1.8928,0.0295816,0.0099927,1340,0.00533464,3.53359
2,1,Potentiostatic EIS,65.3721,3.53337,-0.0356218,177828,0.2455,79.1988,0.0460071,-0.241151,2.02846,0.0405053,0.00994406,1355,0.00761973,3.53337
2,1,Potentiostatic EIS,67.2107,3.53313,-0.0408874,125892,0.179716,77.0321,0.0403292,-0.175133,2.13857,0.0554857,0.00997169,1370,0.0108823,3.53313
2,1,Potentiostatic EIS,69.2635,3.53379,-0.0213177,89125.1,0.131518,74.3448,0.03549,-0.126639,3.80077,0.0740597,0.00974007,1365,0.0153156,3.53379
2,1,Potentiostatic EIS,70.8017,3.53376,-0.0218696,63095.7,0.0968122,70.9399,0.031615,-0.0915046,4.56364,0.103146,0.00998579,1290,0.0204451,3.53376
2,1,Potentiostatic EIS,71.5133,3.53375,-0.0219164,44668.3,0.0722517,65.7805,0.0296401,-0.0658921,5.3009,0.137964,0.00996813,910,0.0203724,3.53375
2,1,Potentiostatic EIS,72.2158,3.53376,-0.021282,31622.8,0.0552073,59.8869,0.027698,-0.0477564,5.94615,0.176693,0.00975459,645,0.0203967,3.53376
2,1,Potentiostatic EIS,72.8725,3.5341,-0.0114009,22387.2,0.0429401,52.5575,0.0261061,-0.0340929,6.12408,0.227724,0.00977873,455,0.0203241,3.5341
2,1,Potentiostatic EIS,73.6184,3.53421,-0.00888101,15848.9,0.0352059,43.8781,0.025377,-0.0244021,5.84112,0.286196,0.0100757,320,0.0201906,3.53421
2,1,Potentiostatic EIS,74.2765,3.53429,-0.00628888,11220.2,0.0304974,34.601,0.0251032,-0.0173182,5.2467,0.329472,0.010048,225,0.0200532,3.53429
2,1,Potentiostatic EIS,75.0927,3.5344,-0.00410167,7943.27,0.0275573,27.7288,0.0243926,-0.012822,2.78022,0.369492,0.0101822,244,0.0307178,3.5344
2,1,Potentiostatic EIS,75.7276,3.53442,-0.00388329,5623.41,0.0251698,18.0827,0.0239266,-0.00781241,3.11928,0.417459,0.0105073,172,0.0305864,3.53442
2,1,Potentiostatic EIS,76.3566,3.53446,-0.00271708,3981.07,0.0249664,11.6546,0.0244517,-0.00504348,3.044,0.409142,0.0102148,122,0.0306451,3.53446
2,1,Potentiostatic EIS,76.9034,3.5345,-0.00139931,2818.38,0.0249043,7.08269,0.0247143,-0.00307075,2.86986,0.422621,0.0105251,86,0.030514,3.5345
2,1,Potentiostatic EIS,77.4005,3.53453,-0.000993093,1995.26,0.0250433,3.53819,0.0249956,-0.00154552,2.48876,0.408064,0.0102193,61,0.0305725,3.53453
2,1,Potentiostatic EIS,77.8091,3.53453,-0.000621864,1412.53,0.0253337,0.844959,0.025331,-0.000373591,2.45762,0.386637,0.00979497,43,0.0304417,3.53453
2,1,Potentiostatic EIS,78.1795,3.53454,-0.000657501,999.999,0.0257627,-1.16247,0.0257574,0.000522661,2.319,0.397132,0.0102312,30,0.03,3.53454
2,1,Potentiostatic EIS,78.545,3.53456,0.000120112,707.945,0.0263131,-2.71803,0.0262835,0.00124779,2.21401,0.383675,0.0100957,21,0.0296633,3.53456
2,1,Potentiostatic EIS,78.9117,3.53457,0.000315365,501.185,0.0269634,-3.81601,0.0269036,0.00179449,2.06514,0.371842,0.0100261,15,0.029929,3.53457
2,1,Potentiostatic EIS,79.192,3.53456,-7.20135e-05,354.813,0.0276323,-4.49443,0.0275474,0.00216533,1.86992,0.329278,0.00909872,10,0.0281839,3.53456
2,1,Potentiostatic EIS,79.4304,3.53456,0.000158913,251.188,0.0283827,-4.93407,0.0282775,0.00244118,1.62281,0.336773,0.00955853,8,0.0318487,3.53456
2,1,Potentiostatic EIS,79.6969,3.53457,0.000393036,177.828,0.0291192,-5.07829,0.0290049,0.00257754,1.29394,0.335585,0.00977196,8,0.0449874,3.53457
2,1,Potentiostatic EIS,80.0142,3.53457,0.000399802,125.892,0.0298118,-5.01396,0.0296977,0.00260551,1.02498,0.330598,0.00985573,8,0.0635464,3.53457
2,1,Potentiostatic EIS,80.4013,3.53457,2.51736e-06,89.1248,0.0304926,-4.80924,0.0303852,0.00255645,0.762964,0.324355,0.00989043,8,0.0897617,3.53457
2,1,Potentiostatic EIS,80.8935,3.53456,0.000368153,63.0956,0.0311259,-4.47594,0.031031,0.00242908,0.567222,0.318097,0.00990104,8,0.126792,3.53456
2,1,Potentiostatic EIS,81.5363,3.53457,0.000103879,44.6682,0.031699,-4.08255,0.0316185,0.00225676,0.385803,0.306421,0.00971322,8,0.179098,3.53457
2,1,Potentiostatic EIS,82.2193,3.53456,-0.00041213,31.6227,0.0321995,-3.6451,0.0321344,0.00204712,0.314432,0.306863,0.00988083,2,0.0632458,3.53456
2,1,Potentiostatic EIS,82.7079,3.53458,-0.00015189,22.3871,0.0326115,-3.18879,0.032561,0.00181406,0.452955,0.296726,0.00967667,2,0.0893371,3.53458
2,1,Potentiostatic EIS,83.3775,3.53456,-0.000655825,15.8489,0.0329732,-2.71096,0.0329363,0.00155955,0.817109,0.297748,0.0098177,2,0.126192,3.53456
2,1,Potentiostatic EIS,84.3015,3.53457,-0.000687635,11.2201,0.0332454,-2.29401,0.0332187,0.00133072,0.248323,0.29717,0.00987962,2,0.178251,3.53457
2,1,Potentiostatic EIS,85.5847,3.53456,-0.000759804,7.94325,0.033443,-1.97648,0.0334231,0.00115342,0.229221,0.296365,0.00991128,2,0.251786,3.53456
2,1,Potentiostatic EIS,87.3761,3.53456,-0.00100249,5.62339,0.0335953,-1.73222,0.03358,0.00101553,0.243442,0.295571,0.00992978,2,0.355657,3.53456
2,1,Potentiostatic EIS,89.8823,3.53456,-0.00106521,3.98106,0.0337397,-1.57035,0.033727,0.000924615,0.188118,0.294594,0.0099395,2,0.502378,3.53456
2,1,Potentiostatic EIS,93.3922,3.53457,-0.00121609,2.81837,0.0338496,-1.47003,0.0338385,0.000868381,0.187291,0.293659,0.00994022,2,0.70963,3.53457
2,1,Potentiostatic EIS,98.3306,3.53457,-0.00119468,1.99526,0.0339762,-1.42834,0.0339656,0.000846914,0.172135,0.292802,0.00994828,2,1.00238,3.53457
2,1,Potentiostatic EIS,105.29,3.53456,-0.00144046,1.41253,0.0341,-1.43744,0.0340892,0.000855412,0.203056,0.291726,0.00994784,2,1.4159,3.53456
2,1,Potentiostatic EIS,115.103,3.53456,-0.00138519,0.999995,0.0342403,-1.51197,0.0342284,0.000903457,0.192575,0.290596,0.00995009,2,2.00001,3.53456
2,1,Potentiostatic EIS,128.948,3.53457,-0.00137434,0.707944,0.0343796,-1.66628,0.0343651,0.000999689,0.201921,0.289442,0.0099509,2,2.82508,3.53457
2,1,Potentiostatic EIS,148.488,3.53457,-0.0013332,0.501186,0.0345245,-1.89028,0.0345057,0.00113881,0.199403,0.288104,0.00994664,2,3.99054,3.53457
2,1,Potentiostatic EIS,176.072,3.53455,-0.00140977,0.354812,0.0346877,-2.18415,0.0346625,0.001322,0.181712,0.286652,0.00994327,2,5.63679,3.53455
2,1,Potentiostatic EIS,215.003,3.53456,-0.00120629,0.251188,0.0349102,-2.58185,0.0348748,0.00157258,0.185763,0.284943,0.0099474,2,7.96218,3.53456
2,1,Potentiostatic EIS,269.976,3.53457,-0.000712879,0.177827,0.0351825,-3.02131,0.0351336,0.00185438,0.201139,0.282742,0.00994758,2,11.2469,3.53457
2,1,Potentiostatic EIS,347.625,3.53457,-0.000749805,0.125892,0.0354908,-3.60602,0.0354206,0.00223221,0.18429,0.280522,0.00995596,2,15.8867,3.53457
2,1,Potentiostatic EIS,457.278,3.53457,-0.000468609,0.0891246,0.0359149,-4.31914,0.0358129,0.00270482,0.176553,0.277138,0.0099534,2,22.4405,3.53457
2,1,Potentiostatic EIS,612.134,3.53458,-7.51363e-05,0.0630955,0.0363535,-5.23945,0.0362016,0.00331974,0.188618,0.273703,0.00995005,2,31.698,3.53458
2,1,Potentiostatic EIS,822.158,3.53457,-0.000379241,0.05,0.0367301,-5.98428,0.0365299,0.00382932,0.155465,0.271008,0.00995415,2,40,3.53457