Folder: feature-extraction-paper-2024/Data/P190_03/EIS_02_P190_03_3

Note: README.md
# feature-extraction-paper-2024
Repository for code used and referenced in 2024 feature extraction paper

File: 2_EIS_02_P190_03_3 20230907 111242.csv
Step number,Repeats,Step name,Elapsed Time  (s),DC Working Electrode (V),DC Current (A),Frequency (Hz),|Z| (Ohms),Phase (deg),Z' (Ohms),-Z" (Ohms),THD (%),Amplitude (A),Amplitude (V),No of Cycles,Duration of Each Frequency (s),IR Compensated DC Working Electrode (V)
2,1,Potentiostatic EIS,0,3.45224,-0.013264,1000000,2.0908,87.609,0.0872257,-2.08898,0.96426,0.00482125,0.01008,1430,0.00143,3.45224
2,1,Potentiostatic EIS,0.503769,3.45211,-0.0165916,630957.375,1.33623,86.6652,0.0777302,-1.33397,0.826407,0.00746997,0.00998163,1355,0.00214753,3.45211
2,1,Potentiostatic EIS,1.05618,3.45197,-0.0191527,398107,0.855531,85.7326,0.0636613,-0.853159,1.21251,0.0114514,0.00979733,1400,0.00351664,3.45197
2,1,Potentiostatic EIS,1.75419,3.45185,-0.0221454,251189,0.548587,84.5668,0.0519426,-0.546122,1.43022,0.0181893,0.00997841,1340,0.00533464,3.45185
2,1,Potentiostatic EIS,2.80027,3.45169,-0.025352,158489,0.352752,83.1532,0.0420534,-0.350236,1.59058,0.0279018,0.00984243,1360,0.00858102,3.45169
2,1,Potentiostatic EIS,4.05506,3.45146,-0.0302141,100000,0.228068,81.316,0.0344348,-0.225453,1.95222,0.0437225,0.00997172,1370,0.0137,3.45146
2,1,Potentiostatic EIS,5.17176,3.4519,-0.0167425,63095.7,0.147787,78.7277,0.0288882,-0.144936,3.7448,0.0674695,0.00997115,1290,0.0204451,3.4519
2,1,Potentiostatic EIS,5.61784,3.45189,-0.0171468,39810.7,0.0968532,74.4668,0.025937,-0.0933156,5.1513,0.103661,0.0100397,815,0.0204719,3.45189
2,1,Potentiostatic EIS,6.05722,3.45223,-0.0079993,25118.9,0.0647552,68.0196,0.0242372,-0.0600483,6.65891,0.15667,0.0101454,510,0.0203034,3.45223
2,1,Potentiostatic EIS,6.50138,3.45228,-0.00637754,15848.9,0.0442877,59.0284,0.022791,-0.0379733,7.0883,0.226887,0.0100484,320,0.0201906,3.45228
2,1,Potentiostatic EIS,7.04491,3.45255,-0.00476923,9999.98,0.0329492,47.6395,0.022201,-0.0243468,3.08811,0.302854,0.00997881,307,0.0307001,3.45255
2,1,Potentiostatic EIS,7.51175,3.4526,-0.00365852,6309.57,0.0256069,35.355,0.0208845,-0.0148172,4.13876,0.370284,0.00948182,193,0.0305885,3.4526
2,1,Potentiostatic EIS,7.93505,3.45264,-0.00289686,3981.07,0.023268,21.4019,0.0216635,-0.00849067,3.84804,0.441455,0.0102718,122,0.0306451,3.45264
2,1,Potentiostatic EIS,8.31469,3.4527,-0.0011674,2511.88,0.0224805,11.8521,0.0220013,-0.00461721,3.23302,0.46729,0.0105049,77,0.0306543,3.4527
2,1,Potentiostatic EIS,8.64959,3.45272,-0.000750447,1584.89,0.0225075,4.97286,0.0224228,-0.00195104,2.68179,0.45034,0.010136,48,0.030286,3.45272
2,1,Potentiostatic EIS,8.9001,3.45271,-0.000832773,999.999,0.023005,0.161834,0.0230049,-6.49783e-05,2.29175,0.446924,0.0102815,30,0.03,3.45271
2,1,Potentiostatic EIS,9.14805,3.45274,-0.000499653,630.956,0.0238244,-3.04584,0.0237907,0.00126591,2.15538,0.423182,0.0100821,19,0.030113,3.45274
2,1,Potentiostatic EIS,9.35062,3.45275,8.46811e-05,398.107,0.0248337,-5.19032,0.0247318,0.00224656,2.03389,0.352698,0.00875878,12,0.0301427,3.45275
2,1,Potentiostatic EIS,9.5096,3.45275,-0.000130896,251.189,0.0259908,-6.51497,0.0258229,0.00294899,1.6996,0.367863,0.00956106,8,0.0318486,3.45275
2,1,Potentiostatic EIS,9.6981,3.45274,0.000283385,158.489,0.0272429,-7.15159,0.027031,0.00339161,1.30396,0.361246,0.00984141,8,0.0504766,3.45274
2,1,Potentiostatic EIS,9.93902,3.45274,-0.000265782,100,0.0285406,-7.27606,0.0283108,0.00361467,0.904706,0.347458,0.00991666,8,0.08,3.45274
2,1,Potentiostatic EIS,10.2693,3.45274,-0.000169381,63.0956,0.0297825,-7.01232,0.0295597,0.00363593,0.613747,0.333187,0.00992315,8,0.126792,3.45274
2,1,Potentiostatic EIS,10.7399,3.45273,-0.000463166,39.8107,0.0309275,-6.57302,0.0307242,0.00354025,0.405864,0.314637,0.00973095,8,0.200951,3.45273
2,1,Potentiostatic EIS,11.0453,3.45274,-0.00132644,25.1188,0.0320056,-6.02672,0.0318287,0.00336034,0.305884,0.301167,0.00963892,2,0.0796217,3.45274
2,1,Potentiostatic EIS,11.4928,3.45276,-0.00057266,15.8489,0.0329932,-5.43946,0.0328446,0.00312756,0.263128,0.297558,0.00981742,2,0.126192,3.45276
2,1,Potentiostatic EIS,12.1812,3.45274,-0.00166371,9.99998,0.0338827,-4.81745,0.033763,0.00284552,0.21548,0.292011,0.00989411,2,0.2,3.45274
2,1,Potentiostatic EIS,13.251,3.45275,-0.00131989,6.30957,0.0346426,-4.20147,0.0345495,0.00253805,0.198523,0.286836,0.00993673,2,0.316979,3.45275
2,1,Potentiostatic EIS,14.9244,3.45274,-0.00140092,3.98106,0.0352492,-3.70268,0.0351756,0.00227636,0.200335,0.282076,0.00994298,2,0.502378,3.45274
2,1,Potentiostatic EIS,17.5519,3.45275,-0.00106414,2.51188,0.0357905,-3.3327,0.03573,0.00208064,0.200759,0.277903,0.00994629,2,0.796216,3.45275
2,1,Potentiostatic EIS,21.7012,3.45275,-0.00166538,1.58489,0.0362588,-3.14569,0.0362041,0.0019897,0.188846,0.274371,0.00994837,2,1.26192,3.45275
2,1,Potentiostatic EIS,28.2566,3.45275,-0.00147296,0.999998,0.0367198,-3.12845,0.0366651,0.00200397,0.181407,0.271167,0.00995721,2,2,3.45275
2,1,Potentiostatic EIS,38.6295,3.45275,-0.00106597,0.630956,0.0371514,-3.26797,0.037091,0.00211785,0.214458,0.267933,0.00995407,2,3.16979,3.45275
2,1,Potentiostatic EIS,55.0575,3.45275,-0.00170651,0.398106,0.0376039,-3.66461,0.0375271,0.00240349,0.141152,0.264782,0.00995684,2,5.02379,3.45275
2,1,Potentiostatic EIS,81.0684,3.45275,-0.00156736,0.251188,0.0381665,-4.25713,0.0380612,0.00283319,0.153724,0.260767,0.00995255,2,7.96216,3.45275
2,1,Potentiostatic EIS,122.282,3.45276,-0.000172407,0.158489,0.0388286,-5.15199,0.0386717,0.00348673,0.149585,0.25638,0.00995486,2,12.6192,3.45276
2,1,Potentiostatic EIS,187.585,3.45275,-0.000123588,0.0999997,0.0396738,-6.38293,0.0394279,0.00441065,0.161999,0.251101,0.00996216,2,20.0001,3.45275